ACCELEROMETER X (m/s²),ACCELEROMETER Y (m/s²),ACCELEROMETER Z (m/s²),GRAVITY X (m/s²),GRAVITY Y (m/s²),GRAVITY Z (m/s²),LINEAR ACCELERATION X (m/s²),LINEAR ACCELERATION Y (m/s²),LINEAR ACCELERATION Z (m/s²),GYROSCOPE X (rad/s),GYROSCOPE Y (rad/s),GYROSCOPE Z (rad/s),LIGHT (lux),MAGNETIC FIELD X (μT),MAGNETIC FIELD Y (μT),MAGNETIC FIELD Z (μT),ORIENTATION Z (azimuth °),ORIENTATION X (pitch °),ORIENTATION Y (roll °),PROXIMITY (i),ATMOSPHERIC PRESSURE (hPa),SOUND LEVEL (dB),LOCATION Latitude : ,LOCATION Longitude : ,LOCATION Altitude ( m),LOCATION Altitude-google ( m),LOCATION Altitude-atmospheric pressure ( m),LOCATION Speed ( Kmh),LOCATION Accuracy ( m),LOCATION ORIENTATION (°),Satellites in range,Time since start in ms ,YYYY-MO-DD HH-MI-SS_SSS
-1.3639,3.4983,9.6861,-2.3243,5.1107,8.0404,3.7214,-3.9586,-0.4085,2.2437,1.1787,0.7942,17.0,-20.29,-22.17,-5.34,134.92,-20.8,13.97,3.1,1004.01,49.847,35.77219,-78.67836,80.39,NaN,,1.3,83.19032,42.8,7 / 21,11,2018-03-09 17:31:05:395
0.2513,3.1035,7.8389,-1.1289,6.3962,7.3474,1.5121,-2.4901,-0.2843,2.0116,-1.9109,-0.4431,20.0,-13.26,-24.48,0.55,153.11,-20.03,15.95,3.1,1004.01,52.204,35.77227,-78.67845,247.47,NaN,,1.3,29.361288,42.8,10 / 21,512,2018-03-09 17:31:05:896
-0.2943,7.7743,7.7121,0.9928,7.7016,5.9892,0.1317,-0.1955,-0.0677,0.1989,-0.4867,-1.2382,10.0,-7.06,-2.97,-35.16,18.69,-53.58,-14.76,3.1,1004.05,65.604,35.77227,-78.67845,247.47,NaN,,1.3,29.361288,42.8,10 / 21,1011,2018-03-09 17:31:06:395
-3.2136,12.0359,3.9362,-0.0701,9.1958,3.4064,-1.7599,2.0515,0.0818,0.8539,-0.9463,0.2051,9.0,-34.98,-15.29,-28.98,59.1,-69.67,1.18,3.1,1004.07,45.521,35.772366,-78.67854,333.48,NaN,,1.8,48.935486,42.8,12 / 21,1511,2018-03-09 17:31:06:895
-2.3402,9.3751,-0.4977,0.1633,9.3956,2.8047,0.6876,-1.4211,5.364,1.5326,-2.0499,-0.395,4.0,-24.18,-9.87,3.93,106.18,-68.11,-1.17,3.1,1003.97,44.471,35.772366,-78.67854,333.48,NaN,,1.8,48.935486,42.8,12 / 21,2012,2018-03-09 17:31:07:396
2.2277,8.8511,-1.0792,0.3378,9.7753,0.7071,1.2898,-0.6389,-1.8827,-0.9837,-0.0025,0.3841,0.0,-25.66,-15.39,6.27,273.73,-86.6,172.65,0.0,1004.03,44.191,35.7723,-78.67842,233.26,NaN,,6.23,53.829033,181.3,13 / 21,2511,2018-03-09 17:31:07:895
-0.804,7.7408,5.6686,-0.2406,8.9644,3.969,-1.239,-1.5566,1.4272,-1.3352,0.5182,0.3739,5.0,-30.35,-12.92,1.13,107.98,-73.84,9.93,3.1,1004.11,53.6,35.7723,-78.67842,233.26,NaN,,6.23,53.829033,181.3,13 / 21,3012,2018-03-09 17:31:08:396
-2.5675,4.3956,5.7284,-3.4633,6.4674,6.5075,1.2712,-1.5039,-1.4952,1.2889,-0.1003,0.6205,19.0,-6.22,-18.36,1.99,163.63,-35.5,19.73,3.1,1004.02,37.547,35.77234,-78.67848,235.97,NaN,,2.12,44.041935,181.3,14 / 21,3511,2018-03-09 17:31:08:895
-2.0578,6.8291,6.5827,-2.3548,7.704,5.5923,-0.2531,-1.4343,0.4204,1.0989,-0.1296,0.1192,38.0,-0.51,-16.72,8.21,185.13,-43.72,18.53,3.1,1004.0,39.175,35.77234,-78.67848,235.97,NaN,,2.12,44.041935,181.3,14 / 21,4012,2018-03-09 17:31:09:396
-5.3336,3.7854,5.0441,-5.8906,4.3915,6.495,-0.9007,-1.7004,-1.0528,-1.9648,1.1418,-1.023,15.0,5.17,-16.99,10.58,209.74,-36.83,31.96,3.1,1003.96,43.732,35.772327,-78.678566,188.04,NaN,,0.9,53.829033,181.3,14 / 21,4511,2018-03-09 17:31:09:895
-5.3671,5.4437,1.8808,-7.8177,2.8675,5.1798,2.1712,0.7168,-2.2694,0.0769,0.7666,0.3729,16.0,14.26,-26.34,-11.99,178.41,-14.26,51.18,3.1,1004.0,58.523,35.772327,-78.678566,188.04,NaN,,0.9,53.829033,181.3,14 / 21,5012,2018-03-09 17:31:10:396
-8.9827,0.3541,4.812,-8.4955,0.0623,4.8982,-0.197,0.2218,0.167,-0.4527,-0.3672,0.0458,20.0,15.69,-25.48,-31.38,140.56,-1.37,62.28,0.0,1003.98,63.369,35.77227,-78.67851,338.43,NaN,,2.92,39.148384,152.4,14 / 21,5511,2018-03-09 17:31:10:895
-8.595,0.067,5.5729,-8.3756,-0.1197,5.0995,-0.0738,0.1859,0.1441,0.002,0.0032,4.0E-4,9.0,12.43,-23.23,-38.4,131.71,0.77,58.74,0.0,1003.97,52.239,35.77227,-78.67851,338.43,NaN,,2.92,39.148384,152.4,14 / 21,6011,2018-03-09 17:31:11:395
-8.9013,0.1149,5.001,-8.6001,-0.0313,4.7126,-0.0836,0.1173,0.1609,0.0052,-7.0E-4,-4.0E-4,8.0,14.44,-23.16,-38.19,130.98,0.21,61.3,0.0,1003.98,47.076,35.772335,-78.67849,261.57,NaN,,1.37,29.361288,152.4,14 / 21,6511,2018-03-09 17:31:11:895
-8.8893,0.0981,5.0584,-8.5772,0.0406,4.754,-0.0032,0.0412,0.0312,-2.0E-4,0.0012,4.0E-4,18.0,14.07,-24.02,-38.2,132.09,-0.16,61.06,3.1,1003.99,40.488,35.772335,-78.67849,261.57,NaN,,1.37,29.361288,152.4,14 / 21,7015,2018-03-09 17:31:12:399
-8.9276,0.1053,5.0656,-8.5654,0.0716,4.7749,-0.0329,0.0242,0.084,-2.0E-4,5.0E-4,4.0E-4,18.0,14.93,-23.64,-37.65,132.55,-0.38,60.92,3.1,1004.0,39.718,35.77244,-78.67846,222.44,NaN,,1.08,39.148384,152.4,14 / 21,7512,2018-03-09 17:31:12:896
-8.9133,0.1196,5.0465,-8.5644,0.0806,4.7766,0.0139,0.0133,-0.0363,2.0E-4,5.0E-4,2.0E-4,17.0,14.3,-23.71,-37.81,132.02,-0.45,60.86,3.1,1003.99,45.926,35.77244,-78.67846,222.44,NaN,,1.08,39.148384,152.4,14 / 21,8011,2018-03-09 17:31:13:395
-8.942,0.1316,5.0991,-8.5638,0.0826,4.7775,0.0366,-0.0134,-0.05,6.0E-4,0.0036,2.0E-4,6.0,14.3,-23.89,-38.17,132.01,-0.49,60.82,0.0,1003.99,49.321,35.77249,-78.67847,185.73,NaN,,0.0,39.148384,,14 / 21,8511,2018-03-09 17:31:13:895
-8.8152,0.0766,4.9316,-8.5626,0.0859,4.7797,-0.0069,0.0134,-0.0025,-2.0E-4,0.0012,4.0E-4,9.0,14.31,-23.43,-38.36,130.79,-0.48,60.83,0.0,1003.99,48.82,35.77249,-78.67847,185.73,NaN,,0.0,39.148384,,14 / 21,9011,2018-03-09 17:31:14:395
-8.7673,0.0766,4.7809,-8.5617,0.0864,4.7813,-0.005,0.0072,0.0127,4.0E-4,7.0E-4,4.0E-4,5.0,13.95,-23.6,-38.18,132.0,-0.49,60.84,0.0,1003.98,48.37,35.772465,-78.67861,261.33,NaN,,0.97,68.509674,152.4,14 / 21,9511,2018-03-09 17:31:14:895
-8.8295,0.0502,4.8072,-8.5615,0.0848,4.7816,-0.0134,0.0137,0.0465,-2.0E-4,5.0E-4,2.0E-4,13.0,13.91,-23.57,-38.18,132.0,-0.48,60.84,3.1,1003.99,49.034,35.772465,-78.67861,261.33,NaN,,0.97,68.509674,152.4,14 / 21,10013,2018-03-09 17:31:15:397
-8.8989,0.0861,5.0321,-8.5609,0.0865,4.7827,-0.0246,0.0016,0.0501,0.0,7.0E-4,0.0,18.0,13.96,-24.37,-38.35,132.0,-0.5,60.83,3.1,1003.98,48.637,35.772465,-78.67861,261.33,NaN,,0.97,68.509674,152.4,14 / 21,10512,2018-03-09 17:31:15:896
-8.8917,0.122,5.0369,-8.561,0.0837,4.7826,-0.0109,5.0E-4,0.0189,-1.0E-4,2.0E-4,-3.0E-4,18.0,13.93,-24.09,-38.5,132.02,-0.48,60.82,3.1,1003.98,49.487,35.772465,-78.67861,261.33,NaN,,0.97,68.509674,152.4,14 / 21,11011,2018-03-09 17:31:16:395
-8.9396,0.0885,5.0919,-8.5586,0.0828,4.7868,-0.0257,0.0038,0.068,1.0E-4,4.0E-4,-5.0E-4,18.0,13.64,-23.48,-37.56,130.79,-0.49,60.81,3.1,1003.98,50.801,35.772415,-78.67864,194.76,NaN,,0.0,48.935486,,14 / 21,11512,2018-03-09 17:31:16:896
-8.9324,0.0766,5.0154,-8.5606,0.0796,4.7834,-0.0263,-0.0208,0.03,5.0E-4,0.0,-3.0E-4,18.0,14.35,-23.84,-37.85,132.03,-0.48,60.8,3.1,1003.99,53.502,35.772415,-78.67864,194.76,NaN,,0.0,48.935486,,14 / 21,12011,2018-03-09 17:31:17:395
-8.9228,0.1484,5.0465,-8.5579,0.0803,4.7881,-0.0201,0.0143,0.0495,-5.0E-4,0.0,5.0E-4,18.0,13.97,-23.77,-37.81,132.05,-0.47,60.77,3.1,1003.99,51.077,35.772396,-78.67867,165.41,NaN,,0.0,44.041935,,12 / 21,12512,2018-03-09 17:31:17:896
-8.9228,0.1412,5.0991,-8.5597,0.0867,4.7848,0.0281,0.0182,-0.0418,-1.0E-4,4.0E-4,-9.0E-4,18.0,13.7,-24.08,-37.7,132.04,-0.46,60.8,3.1,1003.99,51.396,35.772396,-78.67867,165.41,NaN,,0.0,44.041935,,12 / 21,13012,2018-03-09 17:31:18:396
-8.7817,0.0574,4.9077,-8.5591,0.0814,4.7861,0.0081,-0.002,0.0118,-5.0E-4,0.0,-1.0E-4,16.0,14.07,-23.48,-37.94,130.82,-0.48,60.79,3.1,1003.99,57.414,35.772377,-78.678665,186.4,NaN,,0.0,34.254837,,13 / 21,13512,2018-03-09 17:31:18:896
-8.8271,0.0694,4.8646,-8.5568,0.0839,4.7901,-0.006,0.005,0.0204,1.0E-4,0.0,3.0E-4,18.0,14.81,-24.87,-38.36,132.03,-0.49,60.79,3.1,1004.0,56.559,35.772377,-78.678665,186.4,NaN,,0.0,34.254837,,13 / 21,14012,2018-03-09 17:31:19:396
-8.9085,0.1436,5.0297,-8.5603,0.0839,4.7837,0.0097,-0.0108,-0.0363,-1.0E-4,2.0E-4,1.0E-4,18.0,14.78,-25.0,-38.89,132.79,-0.49,60.78,3.1,1003.99,49.132,35.77237,-78.67866,190.41,NaN,,0.0,29.361288,,13 / 21,14511,2018-03-09 17:31:19:895
-8.8917,0.1125,5.0321,-8.5589,0.0824,4.7862,-0.0013,-0.0085,0.0136,-3.0E-4,-2.0E-4,-3.0E-4,18.0,15.72,-24.86,-38.69,133.3,-0.49,60.77,3.1,1004.0,49.165,35.77237,-78.67866,190.41,NaN,,0.0,29.361288,,13 / 21,15011,2018-03-09 17:31:20:395
-8.8511,0.0598,4.9292,-8.5593,0.0821,4.7856,7.0E-4,-0.0075,-0.0328,1.0E-4,-2.0E-4,1.0E-4,19.0,14.38,-24.26,-37.94,132.05,-0.48,60.77,3.1,1003.99,48.382,35.77236,-78.67865,188.74,NaN,,0.0,24.467743,,13 / 21,15511,2018-03-09 17:31:20:895
-8.7841,0.0742,4.8359,-8.5585,0.0838,4.7869,0.0306,-0.0132,-0.0296,-3.0E-4,0.0,-5.0E-4,19.0,13.84,-23.41,-38.17,130.82,-0.48,60.77,3.1,1004.0,48.75,35.77236,-78.67865,188.74,NaN,,0.0,24.467743,,13 / 21,16011,2018-03-09 17:31:21:395
-8.9013,0.1364,5.0584,-8.5591,0.0816,4.7859,0.0294,-0.0141,-0.0389,3.0E-4,0.001,5.0E-4,18.0,14.4,-23.69,-38.18,132.04,-0.48,60.79,3.1,1004.01,49.013,35.772377,-78.678635,186.7,NaN,,0.0,24.467743,,13 / 21,16512,2018-03-09 17:31:21:896
-8.8558,0.0933,4.9005,-8.5576,0.0845,4.7886,0.004,-0.002,-0.0055,-1.0E-4,2.0E-4,-3.0E-4,18.0,14.12,-23.69,-38.06,132.04,-0.48,60.77,3.1,1004.0,47.803,35.772377,-78.678635,186.7,NaN,,0.0,24.467743,,13 / 21,17012,2018-03-09 17:31:22:396
-8.8415,0.1053,4.9986,-8.5574,0.082,4.789,3.0E-4,-0.0033,-0.0059,1.0E-4,-2.0E-4,1.0E-4,18.0,13.82,-23.85,-37.76,132.05,-0.48,60.77,3.1,1004.0,50.685,35.77237,-78.67863,192.34,NaN,,0.0,24.467743,,12 / 21,17512,2018-03-09 17:31:22:896
-8.8702,0.1244,4.9843,-8.5573,0.082,4.7892,0.0097,0.0022,-0.0063,3.0E-4,0.0,3.0E-4,18.0,14.27,-23.63,-37.61,132.05,-0.48,60.76,3.1,1004.01,53.076,35.77237,-78.67863,192.34,NaN,,0.0,24.467743,,12 / 21,18013,2018-03-09 17:31:23:397
-8.8032,0.0598,4.9412,-8.5577,0.0824,4.7884,0.0165,-0.0134,9.0E-4,5.0E-4,6.0E-4,-1.0E-4,18.0,14.16,-24.0,-37.82,132.04,-0.48,60.77,3.1,1004.02,51.143,35.772366,-78.67862,192.78,NaN,,0.0,24.467743,,12 / 21,18512,2018-03-09 17:31:23:896
-8.8367,0.0861,4.9843,-8.5578,0.0814,4.7884,-0.006,-0.0107,0.0098,3.0E-4,-2.0E-4,3.0E-4,18.0,13.72,-23.47,-37.92,130.81,-0.49,60.78,3.1,1004.01,50.34,35.772366,-78.67862,192.78,NaN,,0.0,24.467743,,12 / 21,19012,2018-03-09 17:31:24:396
-8.796,0.134,4.9292,-8.5576,0.0823,4.7886,-0.004,-0.0085,0.005,5.0E-4,2.0E-4,1.0E-4,17.0,13.99,-24.39,-37.87,132.05,-0.48,60.77,3.1,1004.01,49.391,35.772366,-78.6786,205.68,NaN,,0.0,24.467743,,12 / 21,19511,2018-03-09 17:31:24:895
-8.8702,0.0838,4.9292,-8.5575,0.0834,4.7888,-0.0135,-0.008,0.0084,1.0E-4,-2.0E-4,-3.0E-4,17.0,14.29,-23.64,-38.56,131.11,-0.48,60.76,3.1,1004.02,49.411,35.772366,-78.6786,205.68,NaN,,0.0,24.467743,,12 / 21,20011,2018-03-09 17:31:25:395
-8.875,0.0431,4.9675,-8.5568,0.0825,4.7901,-0.0047,-0.0094,0.0037,-3.0E-4,-2.0E-4,-1.0E-4,17.0,13.68,-23.85,-38.34,132.05,-0.48,60.76,3.1,1004.01,50.935,35.772366,-78.6786,205.68,NaN,,0.0,24.467743,,12 / 21,20511,2018-03-09 17:31:25:895
-8.7936,0.1484,4.9484,-8.5571,0.0811,4.7896,-0.0017,-0.0128,0.0014,-3.0E-4,-2.0E-4,-3.0E-4,17.0,14.41,-23.82,-38.02,132.04,-0.48,60.77,3.1,1004.01,49.792,35.772366,-78.6786,205.68,NaN,,0.0,24.467743,,12 / 21,21011,2018-03-09 17:31:26:395
-8.8534,0.0933,4.9292,-8.5563,0.0841,4.791,0.006,0.0192,6.0E-4,1.0E-4,0.0,-3.0E-4,17.0,14.1,-24.6,-38.44,133.23,-0.49,60.75,3.1,1004.02,49.234,35.772366,-78.6786,205.68,NaN,,0.0,24.467743,,12 / 21,21511,2018-03-09 17:31:26:895
-8.8104,0.0814,4.9771,-8.5556,0.0816,4.7923,0.0153,0.0011,0.008,-1.0E-4,2.0E-4,1.0E-4,17.0,13.77,-24.05,-38.05,132.05,-0.48,60.76,3.1,1004.01,49.22,35.772366,-78.6786,205.68,NaN,,0.0,24.467743,,12 / 21,22011,2018-03-09 17:31:27:395
-8.8128,0.1029,4.8766,-8.5574,0.0823,4.789,0.0107,-0.0077,-0.0077,5.0E-4,0.0,1.0E-4,17.0,13.91,-23.95,-38.51,131.11,-0.49,60.76,3.1,1004.02,52.354,35.772366,-78.6786,205.68,NaN,,0.0,24.467743,,12 / 21,22512,2018-03-09 17:31:27:896
-8.8319,0.0215,4.9627,-8.5568,0.0835,4.79,0.008,0.0086,-0.0041,-1.0E-4,0.0,-5.0E-4,18.0,13.41,-24.17,-37.91,131.54,-0.48,60.76,3.1,1004.01,48.311,35.772366,-78.6786,205.68,NaN,,0.0,24.467743,,12 / 21,23011,2018-03-09 17:31:28:395
-8.8176,0.0814,4.9555,-8.5588,0.0689,4.7867,-0.1245,-0.0849,0.0482,-1.0E-4,8.0E-4,-3.0E-4,17.0,14.16,-24.55,-38.15,133.23,-0.51,60.73,3.1,1004.02,60.247,35.772366,-78.6786,205.68,NaN,,0.0,24.467743,,13 / 21,23511,2018-03-09 17:31:28:895
-8.8439,0.055,4.9603,-8.5571,0.0838,4.7895,0.0021,0.0059,0.0047,-3.0E-4,-2.0E-4,1.0E-4,17.0,14.11,-24.29,-38.45,132.05,-0.48,60.77,3.1,1004.02,67.384,35.772366,-78.6786,205.68,NaN,,0.0,24.467743,,13 / 21,24011,2018-03-09 17:31:29:395
-8.8822,0.1196,4.9699,-8.5565,0.0776,4.7906,0.0045,-0.0259,0.0099,1.0E-4,2.0E-4,-1.0E-4,17.0,14.33,-24.17,-37.96,132.07,-0.45,60.76,3.1,1004.02,42.779,35.772366,-78.6786,205.68,NaN,,0.0,24.467743,,13 / 21,24511,2018-03-09 17:31:29:895
-8.8511,0.0909,4.9149,-8.5565,0.0842,4.7906,-0.0074,0.0095,-9.0E-4,1.0E-4,0.0,1.0E-4,17.0,13.69,-23.95,-38.13,132.06,-0.47,60.76,3.1,1004.0,42.387,35.772366,-78.6786,205.68,NaN,,0.0,24.467743,,13 / 21,25011,2018-03-09 17:31:30:395
-8.8558,0.0383,4.9771,-8.5559,0.0828,4.7917,-0.003,-0.0162,0.0075,1.0E-4,-4.0E-4,-7.0E-4,17.0,13.88,-24.7,-38.12,133.23,-0.48,60.75,3.1,1004.01,48.129,35.772366,-78.6786,205.68,NaN,,0.0,24.467743,,13 / 21,25512,2018-03-09 17:31:30:896
-8.8247,0.1531,4.9843,-8.557,0.0862,4.7897,0.0069,0.0313,0.0019,-1.0E-4,-2.0E-4,5.0E-4,16.0,14.2,-24.32,-38.14,132.06,-0.47,60.76,3.1,1004.0,50.988,35.772366,-78.6786,205.68,NaN,,0.0,24.467743,,13 / 21,26012,2018-03-09 17:31:31:396
-8.8487,0.0646,4.9077,-8.5566,0.0816,4.7905,-0.0229,-0.0189,0.0133,-1.0E-4,6.0E-4,5.0E-4,16.0,13.78,-24.28,-37.85,132.06,-0.48,60.76,3.1,1004.01,49.578,35.772366,-78.6786,205.68,NaN,,0.0,24.467743,,13 / 21,26511,2018-03-09 17:31:31:895
-8.8678,0.0502,4.9603,-8.5563,0.0827,4.7909,-0.0011,0.0103,-9.0E-4,5.0E-4,6.0E-4,5.0E-4,16.0,13.95,-24.33,-38.47,132.06,-0.48,60.75,3.1,1004.0,48.704,35.772366,-78.6786,205.68,NaN,,0.0,24.467743,,13 / 21,27012,2018-03-09 17:31:32:396
-8.8199,0.1005,4.9986,-8.5566,0.0818,4.7904,-0.0029,-0.0191,0.0031,1.0E-4,2.0E-4,-1.0E-4,16.0,14.26,-23.94,-38.18,132.05,-0.48,60.76,3.1,1004.01,49.781,35.772366,-78.6786,205.68,NaN,,0.0,24.467743,,13 / 21,27511,2018-03-09 17:31:32:895
-8.8199,0.0981,4.8885,-8.5566,0.0818,4.7904,0.0068,0.0151,0.0034,-5.0E-4,8.0E-4,3.0E-4,17.0,13.78,-24.07,-38.21,132.04,-0.49,60.77,3.1,1004.01,59.176,35.772366,-78.6786,205.68,NaN,,0.0,24.467743,,13 / 21,28012,2018-03-09 17:31:33:396
-8.8511,0.0646,4.9244,-8.5568,0.082,4.7901,-3.0E-4,-0.0034,-7.0E-4,-3.0E-4,4.0E-4,-3.0E-4,17.0,13.4,-23.79,-38.29,131.54,-0.48,60.76,3.1,1004.01,47.392,35.77236,-78.6786,229.78,NaN,,0.0,24.467743,,13 / 21,28511,2018-03-09 17:31:33:895
-8.8582,0.0239,4.9412,-8.5566,0.0795,4.7904,5.0E-4,-0.0128,-0.0019,-1.0E-4,4.0E-4,1.0E-4,17.0,14.3,-24.94,-37.96,133.22,-0.49,60.76,3.1,1004.02,46.914,35.77236,-78.6786,229.78,NaN,,0.0,24.467743,,13 / 21,29012,2018-03-09 17:31:34:396
-8.8223,0.122,4.9843,-8.5563,0.0821,4.7909,0.0108,-3.0E-4,0.0075,-1.0E-4,-4.0E-4,-1.0E-4,17.0,13.74,-24.13,-38.04,131.54,-0.48,60.76,3.1,1004.01,51.485,35.77236,-78.6786,229.78,NaN,,0.0,24.467743,,13 / 20,29512,2018-03-09 17:31:34:896
-8.7984,0.1531,4.9077,-8.5565,0.077,4.7907,-0.0029,-0.0142,0.0042,-5.0E-4,2.0E-4,5.0E-4,18.0,14.76,-24.33,-38.11,132.57,-0.48,60.76,3.1,1004.02,49.576,35.77236,-78.6786,229.78,NaN,,0.0,24.467743,,13 / 20,30012,2018-03-09 17:31:35:396
-8.8702,0.0479,4.9986,-8.5559,0.0811,4.7917,0.0021,-0.0016,0.0073,-1.0E-4,2.0E-4,-3.0E-4,18.0,14.3,-24.0,-38.15,132.05,-0.47,60.76,3.1,1004.02,49.352,35.77236,-78.6786,229.78,NaN,,0.0,24.467743,,13 / 21,30512,2018-03-09 17:31:35:896
-8.8295,0.1412,4.9675,-8.5565,0.0804,4.7907,0.0128,0.0079,-0.0023,1.0E-4,8.0E-4,1.0E-4,18.0,13.52,-24.0,-37.84,132.06,-0.47,60.76,3.1,1004.0,51.277,35.77236,-78.6786,229.78,NaN,,0.0,24.467743,,13 / 21,31012,2018-03-09 17:31:36:396
-8.7936,0.134,4.9244,-8.5572,0.0835,4.7892,0.0124,-0.0033,-0.0096,-3.0E-4,-2.0E-4,-3.0E-4,17.0,13.7,-24.05,-38.47,132.05,-0.49,60.75,3.1,1004.01,49.91,35.77236,-78.6786,229.78,NaN,,0.0,24.467743,,13 / 21,31512,2018-03-09 17:31:36:896
-8.8558,0.0742,4.9675,-8.5561,0.0781,4.7914,0.0301,-0.0113,-0.022,1.0E-4,4.0E-4,9.0E-4,18.0,13.89,-23.96,-38.06,132.06,-0.48,60.75,3.1,1004.01,49.092,35.77236,-78.6786,229.78,NaN,,0.0,24.467743,,13 / 21,32012,2018-03-09 17:31:37:396
-8.8822,0.0311,4.9651,-8.5559,0.081,4.7917,-0.0119,-0.0351,0.0283,-3.0E-4,0.0,-3.0E-4,17.0,13.55,-24.3,-38.2,132.04,-0.49,60.77,3.1,1004.02,53.669,35.77236,-78.6786,229.78,NaN,,0.0,24.467743,,13 / 21,32512,2018-03-09 17:31:37:896
-8.8869,0.1125,4.9962,-8.5576,0.08,4.7887,-0.003,-0.018,0.0015,-3.0E-4,2.0E-4,-1.0E-4,16.0,14.21,-24.69,-38.23,133.24,-0.5,60.73,3.1,1004.01,50.639,35.77236,-78.6786,229.78,NaN,,0.0,24.467743,,13 / 21,33012,2018-03-09 17:31:38:396
-8.8271,0.146,4.9747,-8.5566,0.0815,4.7904,-0.0071,0.0115,-7.0E-4,-5.0E-4,-2.0E-4,-5.0E-4,16.0,14.61,-24.29,-37.84,132.58,-0.48,60.76,3.1,1004.01,50.225,35.77236,-78.6786,229.78,NaN,,0.0,24.467743,,13 / 21,33511,2018-03-09 17:31:38:895
-8.8893,0.1196,4.9268,-8.5557,0.0775,4.7921,-0.0164,0.0021,0.0137,5.0E-4,-2.0E-4,-3.0E-4,15.0,14.16,-23.81,-37.57,132.05,-0.51,60.73,3.1,1004.02,48.838,35.77236,-78.6786,229.78,NaN,,0.0,24.467743,,13 / 21,34011,2018-03-09 17:31:39:395
-8.8463,0.0718,4.9866,-8.5568,0.0887,4.7899,5.0E-4,0.0463,0.0028,-1.0E-4,2.0E-4,-5.0E-4,15.0,14.47,-25.19,-37.86,133.25,-0.45,60.76,3.1,1004.02,48.702,35.77236,-78.6786,229.78,NaN,,0.0,24.467743,,13 / 21,34511,2018-03-09 17:31:39:895
-8.8415,0.0718,4.9244,-8.5562,0.0782,4.7912,-0.0052,0.0061,0.0047,3.0E-4,0.0,0.0013,15.0,18.28,-27.6,-41.38,135.72,-0.52,60.76,3.1,1004.02,48.44,35.77236,-78.6786,229.78,NaN,,0.0,24.467743,,13 / 21,35013,2018-03-09 17:31:40:397
-8.8582,0.0574,4.9866,-8.5568,0.0836,4.79,-0.0148,0.0086,0.0111,1.0E-4,2.0E-4,-5.0E-4,15.0,18.32,-27.76,-41.23,135.76,-0.47,60.76,3.1,1004.02,51.382,35.77236,-78.6786,229.78,NaN,,0.0,24.467743,,13 / 21,35511,2018-03-09 17:31:40:895
-8.8774,0.1077,4.9627,-8.5573,0.0812,4.7891,0.012,-0.0058,-0.003,3.0E-4,0.0,5.0E-4,15.0,17.96,-26.83,-39.81,135.63,-0.5,60.77,3.1,1004.0,48.815,35.77236,-78.6786,229.78,NaN,,0.0,24.467743,,13 / 21,36013,2018-03-09 17:31:41:397
-8.8319,0.1196,4.9196,-8.5583,0.0793,4.7874,-0.0039,-0.0181,0.0062,3.0E-4,6.0E-4,1.0E-4,15.0,17.39,-25.79,-40.74,133.09,-0.49,60.77,3.1,1004.01,52.954,35.77236,-78.6786,229.78,NaN,,0.0,24.467743,,13 / 21,36511,2018-03-09 17:31:41:895
-8.8822,0.1436,4.9866,-8.5575,0.082,4.7888,-0.0024,-0.0113,0.0103,3.0E-4,-2.0E-4,-1.0E-4,15.0,18.04,-26.89,-40.31,135.64,-0.48,60.77,3.1,1004.03,54.001,35.77236,-78.6786,229.78,NaN,,0.0,24.467743,,13 / 21,37011,2018-03-09 17:31:42:395
-8.8558,0.055,4.9531,-8.5571,0.0833,4.7895,-0.0292,0.0128,0.0277,1.0E-4,0.0,5.0E-4,15.0,17.95,-26.96,-41.04,134.69,-0.48,60.77,3.1,1004.02,46.995,35.77236,-78.6786,229.78,NaN,,0.0,24.467743,,13 / 21,37511,2018-03-09 17:31:42:895
-8.8176,0.1101,4.9627,-8.5571,0.084,4.7896,0.0026,0.0122,-0.0037,-3.0E-4,-2.0E-4,-1.0E-4,15.0,16.23,-26.08,-39.77,133.51,-0.47,60.77,3.1,1004.01,48.396,35.77236,-78.6786,229.78,NaN,,0.0,24.467743,,13 / 21,38012,2018-03-09 17:31:43:396
-8.7841,0.0598,4.9507,-8.5565,0.0847,4.7905,0.012,-0.0141,0.0117,1.0E-4,-4.0E-4,1.0E-4,18.0,16.89,-25.74,-40.11,134.01,-0.5,60.77,3.1,1004.01,50.013,35.77236,-78.6786,229.78,NaN,,0.0,24.467743,,13 / 21,38512,2018-03-09 17:31:43:896
-8.8367,0.1531,4.9914,-8.5564,0.0818,4.7908,-0.0216,-0.0175,0.011,-3.0E-4,4.0E-4,3.0E-4,18.0,15.49,-25.6,-39.48,133.92,-0.51,60.76,3.1,1004.02,59.801,35.77236,-78.6786,229.78,NaN,,0.0,24.467743,,13 / 21,39012,2018-03-09 17:31:44:396
-8.8941,0.0455,5.0034,-8.5545,0.0869,4.7941,0.0143,0.0346,-0.0232,7.0E-4,-6.0E-4,5.0E-4,19.0,15.86,-24.42,-38.6,132.17,-0.47,60.73,3.1,1004.02,53.299,35.77236,-78.6786,229.78,NaN,,0.0,24.467743,,13 / 21,39512,2018-03-09 17:31:44:896
-8.796,0.1101,4.9843,-8.5543,0.0858,4.7945,0.0339,-0.0353,-0.0115,1.0E-4,6.0E-4,-7.0E-4,20.0,15.28,-24.82,-38.81,132.8,-0.51,60.74,3.1,1004.01,51.141,35.77236,-78.6786,229.78,NaN,,0.0,24.467743,,13 / 21,40011,2018-03-09 17:31:45:395
-8.8056,0.0502,4.9507,-8.5547,0.0856,4.7937,0.023,0.028,-0.0123,-5.0E-4,0.0,-7.0E-4,19.0,15.45,-25.0,-39.26,132.8,-0.51,60.73,3.1,1004.01,47.749,35.77236,-78.6786,229.78,NaN,,0.0,24.467743,,12 / 21,40512,2018-03-09 17:31:45:896
-8.796,0.1388,4.9412,-8.5546,0.0857,4.794,0.0057,0.0,-0.0067,-3.0E-4,2.0E-4,1.0E-4,19.0,15.77,-24.33,-38.8,132.15,-0.48,60.74,3.1,1004.0,47.255,35.77236,-78.6786,229.78,NaN,,0.0,24.467743,,12 / 21,41013,2018-03-09 17:31:46:397
-8.8654,0.0168,4.9675,-8.5551,0.0849,4.7931,0.0246,-0.0024,-0.0064,-5.0E-4,0.0,-7.0E-4,19.0,15.47,-25.04,-39.0,132.8,-0.5,60.74,3.1,1004.01,47.87,35.77236,-78.6786,229.78,NaN,,0.0,24.467743,,12 / 21,41511,2018-03-09 17:31:46:895
-8.8176,0.1172,4.946,-8.556,0.0858,4.7914,7.0E-4,-0.0033,-0.0187,1.0E-4,2.0E-4,-3.0E-4,18.0,15.55,-25.48,-38.84,133.32,-0.49,60.74,3.1,1004.01,65.428,35.77236,-78.6786,229.78,NaN,,0.0,24.467743,,12 / 21,42011,2018-03-09 17:31:47:395
-8.8678,0.0239,4.9531,-8.5552,0.0831,4.7929,0.0156,-0.0165,-0.0167,5.0E-4,-4.0E-4,1.0E-4,17.0,15.57,-25.22,-39.06,133.31,-0.51,60.75,3.1,1004.0,59.201,35.77236,-78.6786,229.78,NaN,,0.0,24.467743,,12 / 21,42513,2018-03-09 17:31:47:897
-8.796,0.1268,4.9077,-8.5567,0.0879,4.7902,-0.0178,0.0113,0.0179,1.0E-4,-2.0E-4,7.0E-4,17.0,15.53,-25.26,-38.78,133.33,-0.49,60.74,3.1,1004.01,49.977,35.77236,-78.6786,229.78,NaN,,0.0,24.467743,,12 / 21,43012,2018-03-09 17:31:48:396
-8.8534,0.0526,4.9555,-8.5556,0.0813,4.7921,0.0055,-0.0281,-0.0101,5.0E-4,0.0,-5.0E-4,17.0,14.95,-25.79,-38.66,133.95,-0.47,60.75,3.1,1004.01,53.13,35.77236,-78.6786,229.78,NaN,,0.0,24.467743,,12 / 21,43512,2018-03-09 17:31:48:896
-8.8128,0.1292,4.9579,-8.5564,0.085,4.7907,-0.0104,0.0102,-0.0127,-1.0E-4,-6.0E-4,1.0E-4,17.0,15.2,-25.84,-38.58,133.95,-0.47,60.75,3.1,1004.01,50.358,35.77236,-78.6786,229.78,NaN,,0.0,24.467743,,12 / 21,44014,2018-03-09 17:31:49:398
-8.9133,0.0,4.9723,-8.5551,0.0827,4.7931,0.0035,-0.0224,0.0027,3.0E-4,-2.0E-4,5.0E-4,18.0,15.1,-25.44,-38.93,132.81,-0.48,60.74,3.1,1004.01,47.938,35.77236,-78.6786,229.78,NaN,,0.0,24.467743,,12 / 21,44512,2018-03-09 17:31:49:896
-8.7817,0.134,4.9244,-8.5551,0.0819,4.793,-0.0209,0.0022,0.0128,-1.0E-4,-8.0E-4,1.0E-4,17.0,16.06,-25.13,-38.72,133.33,-0.49,60.74,3.1,1004.03,55.21,35.77236,-78.6786,229.78,NaN,,0.0,24.467743,,12 / 21,45011,2018-03-09 17:31:50:395
-8.8893,0.0598,4.9986,-8.5555,0.084,4.7923,0.008,-0.0238,0.0062,-3.0E-4,-2.0E-4,-3.0E-4,17.0,15.68,-25.8,-38.75,134.46,-0.5,60.73,3.1,1004.01,54.188,35.77236,-78.6786,229.78,NaN,,0.0,24.467743,,12 / 21,45512,2018-03-09 17:31:50:896
-8.8271,0.0885,4.9364,-8.5549,0.0839,4.7935,-0.0075,0.0019,0.0139,-1.0E-4,2.0E-4,-3.0E-4,17.0,15.06,-25.06,-38.99,132.81,-0.49,60.75,3.1,1004.01,49.716,35.77236,-78.6786,229.78,NaN,,0.0,24.467743,,12 / 21,46012,2018-03-09 17:31:51:396
-8.8152,0.1412,4.9244,-8.5556,0.0836,4.7923,0.0293,0.0013,-0.0263,1.0E-4,-4.0E-4,-3.0E-4,17.0,14.95,-26.03,-38.29,134.9,-0.49,60.74,3.1,1004.02,40.305,35.77236,-78.6786,229.78,NaN,,0.0,24.467743,,12 / 21,46512,2018-03-09 17:31:51:896
-8.8558,0.0335,4.9771,-8.555,0.0838,4.7932,-0.0022,-0.0021,0.0076,-1.0E-4,0.0,3.0E-4,17.0,15.64,-25.07,-39.3,133.33,-0.48,60.74,3.1,1004.03,43.328,35.77236,-78.6786,229.78,NaN,,0.0,24.467743,,12 / 21,47012,2018-03-09 17:31:52:396
-8.8295,0.1196,4.9747,-8.5544,0.0828,4.7944,-0.0011,0.0093,4.0E-4,-5.0E-4,2.0E-4,-1.0E-4,17.0,15.49,-25.19,-39.03,132.82,-0.47,60.73,3.1,1004.03,46.558,35.77236,-78.6786,229.78,NaN,,0.0,24.467743,,12 / 21,47512,2018-03-09 17:31:52:896
-8.863,0.0144,4.9819,-8.554,0.0847,4.795,0.0098,-0.0014,-0.0035,-3.0E-4,0.0,3.0E-4,17.0,14.73,-25.71,-38.84,133.95,-0.49,60.72,3.1,1004.02,47.036,35.77236,-78.6786,229.78,NaN,,0.0,24.467743,,12 / 21,48012,2018-03-09 17:31:53:396
-8.796,0.0981,4.9053,-8.5528,0.0846,4.7972,-0.001,0.0146,0.0148,1.0E-4,-2.0E-4,-3.0E-4,17.0,15.39,-25.46,-38.53,132.82,-0.49,60.72,3.1,1004.03,47.059,35.77236,-78.6786,229.78,NaN,,0.0,24.467743,,12 / 21,48512,2018-03-09 17:31:53:896
-8.8558,0.0981,5.0082,-8.5539,0.0851,4.7951,0.0086,0.0014,-0.0094,1.0E-4,-4.0E-4,1.0E-4,17.0,15.6,-25.15,-39.2,133.78,-0.48,60.72,3.1,1004.02,47.312,35.77236,-78.6786,229.78,NaN,,0.0,24.467743,,12 / 21,49012,2018-03-09 17:31:54:396
-8.8463,0.0144,4.9699,-8.5526,0.0824,4.7976,0.0093,-0.0055,0.0029,-1.0E-4,-8.0E-4,-1.0E-4,17.0,15.24,-25.45,-38.85,132.83,-0.48,60.71,3.1,1004.03,49.864,35.77236,-78.6786,229.78,NaN,,0.0,24.467743,,12 / 21,49512,2018-03-09 17:31:54:896
-8.808,0.1077,4.9125,-8.5525,0.0848,4.7978,0.0157,0.0017,-0.0106,1.0E-4,-2.0E-4,-1.0E-4,17.0,15.56,-25.67,-38.68,134.49,-0.49,60.7,3.1,1004.01,50.845,35.77236,-78.6786,229.78,NaN,,0.0,24.467743,,12 / 21,50011,2018-03-09 17:31:55:395
-8.8295,0.1244,4.9579,-8.5519,0.0842,4.7987,0.0156,-0.0137,0.0038,-1.0E-4,-4.0E-4,1.0E-4,17.0,21.44,-25.84,-31.6,144.24,-0.5,60.71,3.1,1004.01,50.168,35.77236,-78.6786,229.78,NaN,,0.0,24.467743,,12 / 21,50514,2018-03-09 17:31:55:898
-8.8367,0.0168,5.0034,-8.5529,0.0859,4.7969,0.0112,-0.0066,-4.0E-4,-5.0E-4,2.0E-4,-7.0E-4,17.0,18.07,-26.97,-35.04,140.92,-0.46,60.7,3.1,1004.03,56.701,35.77236,-78.6786,229.78,NaN,,0.0,24.467743,,12 / 21,51011,2018-03-09 17:31:56:395
-8.7266,0.1412,4.9819,-8.5504,0.0829,4.8014,0.0442,-0.0076,-0.0276,3.0E-4,-0.001,7.0E-4,18.0,25.36,-29.34,-29.24,155.51,-0.5,60.71,3.1,1004.01,51.964,35.77236,-78.6786,229.78,NaN,,0.0,24.467743,,12 / 21,51512,2018-03-09 17:31:56:896
-8.9204,0.0838,4.8718,-8.552,0.085,4.7987,-0.0545,-0.0105,-0.1042,-1.0E-4,0.0016,1.0E-4,17.0,21.65,-27.83,-33.25,147.23,-0.49,60.4,3.1,1004.03,50.505,35.77236,-78.6786,229.78,NaN,,0.0,24.467743,,12 / 21,52012,2018-03-09 17:31:57:396
-8.6501,0.1125,5.3623,-8.4776,0.086,4.9288,0.188,0.0148,0.2825,-1.0E-4,-0.0026,9.0E-4,17.0,21.79,-27.95,-32.88,144.16,-0.5,60.54,3.1,1004.01,52.085,35.77236,-78.6786,229.78,NaN,,0.0,24.467743,,12 / 21,52512,2018-03-09 17:31:57:896
-8.6213,0.0502,5.3886,-8.3577,0.0909,5.1295,0.0672,-0.0278,0.1217,1.0E-4,-0.0022,-0.0015,17.0,24.12,-25.34,-31.11,150.4,-0.53,58.68,3.1,1004.02,53.934,35.77236,-78.6786,229.78,NaN,,0.0,24.467743,,12 / 21,53012,2018-03-09 17:31:58:396
-8.6333,-0.1436,5.3456,-8.3051,-0.0394,5.2148,-0.0053,-0.0661,0.0228,-0.0361,0.0016,0.0203,18.0,21.37,-26.58,-33.52,147.0,0.23,57.88,3.1,1004.03,53.231,35.77236,-78.6786,229.78,NaN,,0.0,24.467743,,12 / 21,53511,2018-03-09 17:31:58:895
-8.7051,-0.28,5.123,-8.344,-0.0609,5.1521,-0.051,-0.0957,-0.1409,-0.086,0.0043,0.0418,18.0,27.72,-27.96,-26.88,163.88,0.25,58.13,3.1,1004.03,55.229,35.77236,-78.6786,229.78,NaN,,0.0,24.467743,,12 / 21,54011,2018-03-09 17:31:59:395
-8.7195,-0.0215,5.1757,-8.3993,-0.0434,5.0616,-0.0636,0.0577,-0.0701,-0.1573,-0.0014,0.0891,18.0,24.7,-25.85,-29.74,154.13,0.31,58.79,3.1,1004.02,54.303,35.772354,-78.67859,232.58,NaN,,1.12,14.680644,239.8,12 / 21,54512,2018-03-09 17:31:59:896
-8.607,0.2991,5.3719,-8.422,-0.004,5.0239,0.0875,0.395,0.1826,-0.206,-0.0018,0.1213,10.0,22.25,-27.71,-31.31,151.42,0.23,59.15,3.1,1004.02,52.875,35.772354,-78.67859,232.58,NaN,,1.12,14.680644,239.8,12 / 21,55012,2018-03-09 17:32:00:396
-8.6859,0.268,5.3432,-8.3983,0.1356,5.0618,-0.0197,0.1556,0.0874,-0.2304,0.0045,0.1349,24.0,22.25,-26.77,-32.47,148.86,-0.59,58.99,3.1,1004.01,53.506,35.772354,-78.67859,232.58,NaN,,1.12,14.680644,239.8,12 / 21,55512,2018-03-09 17:32:00:896
-8.5208,0.2943,5.1876,-8.3848,0.2365,5.0804,0.0883,0.0968,-0.0536,-0.2526,-2.0E-4,0.1341,44.0,18.2,-25.43,-38.29,136.27,-1.27,58.79,3.1,1004.02,54.263,35.772354,-78.67859,232.58,NaN,,1.12,14.680644,239.8,12 / 21,56012,2018-03-09 17:32:01:396
-8.7314,0.5408,5.3767,-8.3534,0.323,5.127,-0.1408,0.1648,0.0599,-0.2624,0.001,0.1563,19.0,17.91,-24.33,-39.95,132.87,-1.72,58.46,3.1,1004.03,53.806,35.772354,-78.67859,232.58,NaN,,1.12,14.680644,239.8,12 / 21,56511,2018-03-09 17:32:01:895
-8.5807,0.6221,5.3551,-8.3357,0.3652,5.153,-0.0137,0.1802,0.0518,-0.2842,0.0114,0.1648,9.0,21.4,-20.45,-38.81,129.98,-2.06,58.37,3.1,1004.02,53.293,35.772354,-78.67859,232.58,NaN,,1.12,14.680644,239.8,12 / 21,57012,2018-03-09 17:32:02:396
-8.6955,0.5312,5.2164,-8.3411,0.4167,5.1403,-0.0564,0.0809,0.002,-0.2878,0.0016,0.1783,8.0,19.94,-18.85,-44.19,122.65,-2.44,58.36,3.1,1004.02,54.386,35.77235,-78.67861,232.43,NaN,,4.14,14.680644,276.5,12 / 21,57512,2018-03-09 17:32:02:896
-8.7386,0.7753,5.1685,-8.3434,0.6297,5.1148,-0.067,0.1251,-0.1143,-0.2939,0.0167,0.166,8.0,20.26,-20.84,-41.05,127.61,-3.24,58.33,3.1,1004.01,57.072,35.77235,-78.67861,232.43,NaN,,4.14,14.680644,276.5,12 / 21,58011,2018-03-09 17:32:03:395
-8.7721,0.9236,4.7665,-8.3967,0.6913,5.0188,-0.124,0.2634,-0.3021,-0.2699,0.0147,0.1589,8.0,17.72,-15.6,-42.34,116.5,-4.01,59.13,3.1,1004.01,55.914,35.772327,-78.67863,229.76,NaN,,4.72,14.680644,255.8,12 / 21,58512,2018-03-09 17:32:03:896
-9.1143,0.9404,4.3334,-8.5365,0.7677,4.7654,-0.3733,0.1457,-0.6256,-0.1978,0.0027,0.1074,8.0,16.64,-14.97,-41.72,113.54,-4.42,60.25,3.1,1004.01,54.519,35.772327,-78.67863,229.76,NaN,,4.72,14.680644,255.8,12 / 21,59012,2018-03-09 17:32:04:396
-9.1095,0.7968,4.4195,-8.6992,0.7863,4.4583,-0.141,-0.101,-0.1762,-0.1019,6.0E-4,0.0624,9.0,13.84,-13.41,-43.12,108.04,-4.68,62.57,3.1,1004.0,56.112,35.7723,-78.67863,222.99,NaN,,4.14,14.680644,238.6,12 / 21,59512,2018-03-09 17:32:04:896
-9.0664,0.7466,4.386,-8.7765,0.7277,4.3143,-0.0304,-0.0826,-0.0692,-0.0268,0.0,0.0152,9.0,11.46,-10.25,-46.18,101.83,-4.48,63.53,3.1,1004.01,56.667,35.7723,-78.67863,222.99,NaN,,4.14,14.680644,238.6,12 / 21,60011,2018-03-09 17:32:05:395
-8.5735,0.3972,5.1135,-8.7507,0.6425,4.3799,0.3113,-0.4677,0.459,-0.0011,-0.0047,0.0038,9.0,11.73,-11.9,-44.52,105.93,-3.76,63.41,3.1,1004.01,66.85,35.772278,-78.67864,222.96,NaN,,3.96,14.680644,238.2,12 / 21,60512,2018-03-09 17:32:05:896
-8.8271,0.335,4.8431,-8.7037,0.5594,4.4836,0.1364,-0.2597,0.1287,-0.0022,0.0018,-0.0017,10.0,16.12,-9.23,-42.02,103.17,-3.36,62.76,3.1,1004.02,56.575,35.772278,-78.67864,222.96,NaN,,3.96,14.680644,238.2,12 / 21,61012,2018-03-09 17:32:06:396
-9.2076,0.5695,4.2951,-8.6601,0.4602,4.5783,-0.2756,0.156,-0.4283,0.0321,0.0096,-0.0148,10.0,11.33,-9.16,-47.35,101.64,-2.69,62.14,3.1,1004.03,52.743,35.772266,-78.67864,217.57,NaN,,2.81,19.574192,238.1,12 / 21,61511,2018-03-09 17:32:06:895
-9.1525,0.3206,4.453,-8.7693,0.4378,4.3679,-0.0043,-0.2429,0.0726,0.0703,-0.0094,-0.0541,9.0,14.7,-10.25,-43.02,104.85,-2.73,63.55,3.1,1004.01,60.277,35.772266,-78.67864,217.57,NaN,,2.81,19.574192,238.1,12 / 21,62013,2018-03-09 17:32:07:397
-9.0951,-0.0191,4.6229,-8.7664,0.2214,4.39,-0.0024,-0.2284,0.0293,0.0638,-2.0E-4,-0.0372,9.0,13.85,-11.54,-44.26,108.54,-1.61,63.41,3.1,1004.01,60.372,35.772266,-78.678635,218.46,NaN,,0.94,14.680644,238.1,12 / 21,62512,2018-03-09 17:32:07:896
-9.119,0.012,4.5894,-8.7421,0.17,4.4403,0.0193,-0.1152,0.0267,0.0198,-0.0094,-0.0166,9.0,11.79,-12.89,-47.43,108.72,-1.12,63.16,3.1,1004.02,57.861,35.772266,-78.678635,218.46,NaN,,0.94,14.680644,238.1,12 / 21,63012,2018-03-09 17:32:08:396
-9.2195,0.012,3.9386,-8.7492,0.0844,4.4289,-0.1571,0.0354,-0.3358,-0.0313,0.0043,0.0032,346.0,14.42,-12.65,-48.06,109.18,-0.53,63.05,3.1,1004.0,61.745,35.772278,-78.67863,221.38,NaN,,3.28,14.680644,34.9,12 / 21,63511,2018-03-09 17:32:08:895
-9.1334,0.2058,4.0463,-8.7819,0.1067,4.3632,-0.207,0.2124,-0.3973,-0.063,0.0014,0.0243,11.0,13.7,-10.78,-50.4,105.69,-0.34,63.38,3.1,1003.99,57.161,35.772278,-78.67863,221.38,NaN,,3.28,14.680644,34.9,12 / 21,64012,2018-03-09 17:32:09:396
-9.1334,0.3398,4.3334,-8.8238,0.0916,4.2782,0.1897,0.2845,-0.1591,-0.0803,0.0075,0.0406,7.0,11.23,-10.61,-46.66,105.98,-0.51,64.08,3.1,1004.01,59.142,35.77229,-78.67862,223.46,NaN,,4.64,14.680644,33.4,12 / 21,64511,2018-03-09 17:32:09:895
-9.0473,-0.0215,4.13,-8.8304,0.0435,4.2653,0.0446,-0.1863,-0.189,-0.0661,-0.0098,0.0475,28.0,14.51,-9.32,-41.58,105.86,-0.23,64.13,3.1,1003.99,58.529,35.77229,-78.67862,223.46,NaN,,4.64,14.680644,33.4,12 / 21,65012,2018-03-09 17:32:10:396
-8.942,0.3876,4.5177,-8.826,0.1197,4.2728,0.2858,0.4199,-0.2018,-0.0632,-0.0193,0.016,197.0,10.45,-7.57,-46.92,101.38,-0.7,64.17,3.1,1004.01,56.291,35.772305,-78.67861,225.83,NaN,,8.86,14.680644,17.7,12 / 21,65512,2018-03-09 17:32:10:896
-9.0305,-0.1053,4.7115,-8.7824,0.1287,4.3616,0.0331,-0.2292,0.1545,-0.0176,-0.0053,-0.0089,34.0,12.3,-8.73,-48.63,102.53,-0.72,63.8,3.1,1004.0,56.376,35.772305,-78.67861,225.83,NaN,,8.86,14.680644,17.7,12 / 21,66011,2018-03-09 17:32:11:395
-9.1573,0.1914,4.599,-8.7725,0.1333,4.3813,-0.0239,0.0015,0.051,-0.0066,0.0016,0.0123,15.0,12.47,-8.5,-46.03,101.93,-0.81,63.42,3.1,1004.01,56.293,35.772335,-78.67861,223.22,NaN,,9.76,14.680644,13.5,12 / 21,66512,2018-03-09 17:32:11:896
-8.9874,0.4164,5.0871,-8.7676,0.2125,4.388,0.0942,0.317,0.5132,0.0052,0.0183,0.0066,23.0,14.13,-9.96,-46.1,105.0,-1.14,63.36,3.1,1004.01,63.615,35.772335,-78.67861,223.22,NaN,,9.76,14.680644,13.5,12 / 21,67012,2018-03-09 17:32:12:396
-9.2865,0.6413,4.5799,-8.827,0.224,4.2666,-0.1687,0.2524,0.1188,0.0388,0.011,0.0251,10.0,10.22,-9.18,-48.88,101.98,-1.08,64.08,3.1,1004.01,61.877,35.772366,-78.67859,224.46,NaN,,12.46,14.680644,12.4,12 / 21,67513,2018-03-09 17:32:12:897
-8.8869,0.2536,4.4076,-8.8191,0.2174,4.2833,0.2129,0.2309,0.1254,0.026,4.0E-4,0.003,13.0,7.95,-7.94,-46.83,100.83,-1.19,64.14,3.1,1004.02,58.257,35.772366,-78.67859,224.46,NaN,,12.46,14.680644,12.4,12 / 21,68012,2018-03-09 17:32:13:396
-8.4275,0.5647,4.5368,-8.7706,0.2497,4.38,0.606,0.3536,0.0578,0.0168,0.0049,-0.0015,3.0,12.72,-7.91,-47.7,100.95,-1.41,63.51,3.1,1004.01,60.223,35.772408,-78.67858,225.79,NaN,,17.14,14.680644,11.4,14 / 21,68511,2018-03-09 17:32:13:895
-8.6285,0.7155,5.1757,-8.7404,0.267,4.4389,0.6457,0.5043,0.1803,0.0296,-0.0332,-0.004,11.0,10.98,-8.24,-48.68,100.43,-1.56,63.08,3.1,1004.02,61.919,35.772408,-78.67858,225.79,NaN,,17.14,14.680644,11.4,14 / 21,69011,2018-03-09 17:32:14:395
-8.5448,0.256,5.5035,-8.5997,0.2433,4.7071,0.3827,0.1613,0.757,0.0264,-0.0383,-0.0233,8.0,13.81,-7.7,-43.28,102.98,-1.42,61.64,3.1,1004.03,62.434,35.772453,-78.67857,225.74,NaN,,17.17,19.574192,12.0,14 / 21,69513,2018-03-09 17:32:14:897
-8.9133,0.1603,6.1232,-8.5805,0.2756,4.7402,0.5158,0.1374,0.4233,0.0215,0.0226,-0.006,26.0,17.1,-9.05,-43.39,105.2,-1.61,61.08,3.1,1004.02,60.802,35.772453,-78.67857,225.74,NaN,,17.17,19.574192,12.0,14 / 21,70012,2018-03-09 17:32:15:396
-7.9992,0.4235,5.9198,-8.513,0.2622,4.8611,0.8017,0.0661,0.8137,-5.0E-4,-0.0265,-0.0064,2.0,15.52,-11.95,-44.89,109.39,-1.5,60.69,3.1,1004.03,54.874,35.77249,-78.67856,226.54,NaN,,13.75,44.041935,12.7,14 / 21,70513,2018-03-09 17:32:15:897
-7.8676,0.3206,6.6305,-8.3682,0.2659,5.1061,0.8635,0.0421,1.3737,0.0033,-0.0232,0.005,6.0,14.94,-11.05,-42.17,109.73,-1.55,58.61,3.1,1004.06,61.477,35.77249,-78.67856,226.54,NaN,,13.75,44.041935,12.7,14 / 21,71012,2018-03-09 17:32:16:396
-8.6166,0.1747,4.8072,-8.3523,0.2451,5.1331,0.0303,-0.0202,-0.4891,-0.0146,0.0273,0.0172,4.0,12.76,-9.77,-45.8,105.85,-1.38,58.15,3.1,1004.07,52.51,35.772526,-78.67855,232.35,NaN,,12.96,44.041935,13.5,14 / 21,71512,2018-03-09 17:32:16:896
-8.8869,-0.7059,4.8957,-8.3753,0.0973,5.1005,-0.2116,-0.9071,-0.368,-0.0923,0.0033,0.0535,5.0,8.83,-7.74,-49.72,101.4,-0.57,58.66,3.1,1004.03,60.065,35.772526,-78.67855,232.35,NaN,,12.96,44.041935,13.5,14 / 21,72011,2018-03-09 17:32:17:395
-8.9324,-1.3926,5.4556,-8.3825,-0.0778,5.089,-0.109,-1.1173,0.0551,-0.2298,0.0171,0.1563,16.0,10.3,-6.87,-48.65,100.41,-0.02,58.78,3.1,1004.03,63.893,35.772552,-78.67854,230.53,NaN,,10.98,44.041935,14.5,14 / 21,72512,2018-03-09 17:32:17:896
-8.7888,-1.1892,5.1685,-8.4886,-0.3735,4.8965,-0.0156,-0.5502,-0.0124,-0.3114,0.011,0.1642,2.0,11.11,-3.83,-45.68,98.67,2.18,60.02,3.1,1004.05,65.206,35.772552,-78.67854,230.53,NaN,,10.98,44.041935,14.5,14 / 21,73011,2018-03-09 17:32:18:395
-8.7721,-1.2491,5.324,-8.5424,-0.4676,4.7936,0.1044,-0.7256,0.4062,-0.342,0.0039,0.219,1.0,14.05,-1.65,-43.48,96.69,2.74,60.62,3.1,1004.04,61.73,35.772575,-78.67854,230.67,NaN,,9.97,48.935486,13.9,14 / 21,73512,2018-03-09 17:32:18:896
-8.8247,-1.1079,5.4772,-8.5358,-0.6854,4.7792,0.0642,-0.3963,0.4822,-0.3658,0.0224,0.1986,5.0,15.53,2.27,-38.35,90.45,3.86,60.54,3.1,1004.04,63.196,35.772575,-78.67854,230.67,NaN,,9.97,48.935486,13.9,14 / 21,74012,2018-03-09 17:32:19:396
-8.5663,-0.8686,5.2451,-8.5607,-0.6774,4.7355,0.1546,-0.0891,0.4365,-0.3292,0.0177,0.1901,7.0,11.33,3.62,-39.85,86.12,3.91,61.42,3.1,1004.03,62.879,35.7726,-78.67854,227.94,NaN,,10.15,44.041935,3.2,13 / 21,74512,2018-03-09 17:32:19:896
-8.4634,-0.201,4.9866,-8.5323,-0.5638,4.8012,0.3001,0.3901,0.0383,-0.2927,0.0059,0.186,7.0,15.04,7.42,-35.93,77.85,3.42,60.49,3.1,1004.03,62.372,35.7726,-78.67854,227.94,NaN,,10.15,44.041935,3.2,13 / 21,75011,2018-03-09 17:32:20:395
-8.6333,-0.5767,5.2188,-8.5419,-0.5158,4.7896,0.1652,-0.0291,0.3388,-0.2298,-0.009,0.143,50.0,18.08,9.47,-36.36,72.4,3.12,60.75,3.1,1004.03,60.842,35.772625,-78.67855,223.06,NaN,,9.97,48.935486,349.2,13 / 21,75511,2018-03-09 17:32:20:895
-8.796,-0.0766,5.1278,-8.5762,-0.3782,4.7409,0.0928,0.3797,0.1888,-0.1986,0.0234,0.1076,3.0,19.53,10.77,-31.96,62.12,2.33,60.91,3.1,1004.03,57.85,35.772625,-78.67855,223.06,NaN,,9.97,48.935486,349.2,13 / 21,76012,2018-03-09 17:32:21:396
-8.8534,0.0335,5.4772,-8.584,-0.2382,4.7359,0.002,0.4626,0.6039,-0.0997,0.043,0.0471,3.0,25.25,12.96,-28.25,45.6,1.44,60.99,3.1,1004.04,58.511,35.77264,-78.67857,220.83,NaN,,7.78,48.935486,331.5,13 / 21,76512,2018-03-09 17:32:21:896
-8.6501,0.0024,5.147,-8.6122,-0.1174,4.689,0.0539,0.2291,0.2812,-0.0748,0.034,0.0683,4.0,15.86,9.96,-43.35,72.53,0.89,61.32,3.1,1004.02,61.175,35.77264,-78.67857,220.83,NaN,,7.78,48.935486,331.5,13 / 21,77011,2018-03-09 17:32:22:395
-8.6955,-0.3852,5.3982,-8.6152,-0.1042,4.6838,0.2547,-0.2663,0.4861,-0.1154,-0.0165,0.0596,5.0,16.29,9.88,-38.66,73.41,0.53,61.67,3.1,1004.04,62.255,35.77265,-78.6786,218.69,NaN,,9.32,48.935486,318.3,13 / 21,77514,2018-03-09 17:32:22:898
-8.4778,-1.2371,5.415,-8.5191,-0.3694,4.8435,0.2752,-0.7879,0.485,-0.2658,0.0057,0.1479,7.0,14.82,10.43,-36.39,69.71,2.16,60.38,3.1,1004.05,60.518,35.77265,-78.6786,218.69,NaN,,9.32,48.935486,318.3,13 / 21,78012,2018-03-09 17:32:23:396
-8.4443,-1.7228,5.8313,-8.4772,-0.6479,4.8876,0.3319,-1.0711,0.7517,-0.3736,0.0041,0.1738,64.0,11.51,9.76,-39.09,73.52,3.39,59.99,3.1,1004.04,60.782,35.772663,-78.678635,215.1,NaN,,8.96,48.935486,300.0,13 / 21,78511,2018-03-09 17:32:23:895
-8.4945,-1.2634,5.324,-8.517,-0.6799,4.8135,0.2996,-0.754,0.5746,-0.4485,0.0161,0.2481,30.0,21.56,10.41,-28.12,60.42,3.98,60.53,3.1,1004.04,62.268,35.772663,-78.678635,215.1,NaN,,8.96,48.935486,300.0,13 / 21,79011,2018-03-09 17:32:24:395
-8.9204,-1.1988,5.3551,-8.5841,-0.7714,4.6784,-0.0546,-0.4033,0.515,-0.4731,0.0075,0.265,39.0,23.11,10.15,-25.33,55.11,4.35,61.14,3.1,1004.04,62.221,35.772663,-78.67867,214.27,NaN,,8.93,48.935486,282.8,13 / 21,79511,2018-03-09 17:32:24:895
-8.7769,-0.8997,5.0345,-8.644,-0.7246,4.5746,0.1943,-0.2968,0.4794,-0.4141,-0.0204,0.3481,36.0,29.35,10.79,-19.19,20.98,4.24,62.11,3.1,1004.03,63.877,35.772663,-78.67867,214.27,NaN,,8.93,48.935486,282.8,13 / 21,80011,2018-03-09 17:32:25:395
-9.0209,-0.5264,5.2594,-8.6359,-0.655,4.6004,5.0E-4,0.059,0.4974,-0.3096,-0.0405,0.1787,26.0,31.13,8.13,-13.92,340.27,3.88,62.26,3.1,1004.03,61.262,35.772655,-78.6787,213.94,NaN,,8.82,44.041935,262.9,13 / 21,80511,2018-03-09 17:32:25:895
-8.918,-0.0239,4.8479,-8.7079,-0.5046,4.482,0.1391,0.7931,0.056,-0.165,0.0208,0.1056,5.0,30.24,5.55,-13.06,333.29,2.95,62.76,3.1,1004.03,60.484,35.772655,-78.6787,213.94,NaN,,8.82,44.041935,262.9,13 / 21,81011,2018-03-09 17:32:26:395
-8.7027,0.0694,4.812,-8.7271,-0.4051,4.4546,0.5207,0.3978,0.0695,-0.0292,-0.0016,0.0459,1.0,37.04,3.6,-12.22,290.43,2.52,62.88,3.1,1004.05,56.927,35.772636,-78.67873,217.83,NaN,,8.5,44.041935,241.3,13 / 21,81512,2018-03-09 17:32:26:896
-8.2863,0.1005,4.745,-8.7013,-0.3481,4.5095,0.8269,0.3926,0.068,-0.0331,0.0216,0.0302,9.0,34.31,4.43,-10.83,294.34,2.14,62.53,3.1,1004.06,59.535,35.772636,-78.67873,217.83,NaN,,8.5,44.041935,241.3,13 / 21,82011,2018-03-09 17:32:27:395
-8.2098,0.1986,4.8455,-8.6665,-0.3012,4.5794,0.278,0.1345,0.4722,-0.018,-0.0179,0.0178,2.0,33.38,4.27,-12.61,306.96,1.89,62.4,3.1,1004.09,62.77,35.77261,-78.67875,218.64,NaN,,11.16,48.935486,221.3,13 / 21,82512,2018-03-09 17:32:27:896
-8.7171,-0.2201,5.336,-8.6332,-0.2771,4.6434,0.0657,-0.2176,0.6082,-0.0197,4.0E-4,0.0329,0.0,35.68,2.45,-11.61,277.68,1.73,61.81,3.1,1004.09,61.503,35.77261,-78.67875,218.64,NaN,,11.16,48.935486,221.3,13 / 21,83012,2018-03-09 17:32:28:396
-9.2626,-0.0335,5.6471,-8.6131,-0.2466,4.6823,-0.3155,0.3045,1.1184,-0.0168,-0.0185,0.0223,1.0,33.82,0.5,-11.91,260.34,1.53,61.67,3.1,1004.12,61.857,35.772564,-78.67878,220.55,NaN,,16.27,44.041935,201.9,13 / 21,83511,2018-03-09 17:32:28:895
-8.8678,0.1244,5.4748,-8.5322,-0.1793,4.8311,-0.5396,0.3536,0.7617,-0.0023,-0.0242,0.0119,7.0,33.23,-0.4,-12.17,263.08,1.13,60.77,3.1,1004.14,61.575,35.772564,-78.67878,220.55,NaN,,16.27,44.041935,201.9,13 / 21,84012,2018-03-09 17:32:29:396
-9.2243,0.414,5.1709,-8.5314,-0.1661,4.833,-0.4689,0.4274,0.3092,0.006,0.0088,0.0349,1.0,32.37,0.5,-14.39,272.62,1.16,60.45,3.1,1004.17,60.787,35.772507,-78.678795,223.23,NaN,,17.64,44.041935,196.5,13 / 21,84511,2018-03-09 17:32:29:895
-8.9276,-0.2967,5.1182,-8.553,-0.1819,4.794,-0.1587,0.0312,0.3319,-0.0339,4.0E-4,-0.0034,3.0,35.27,0.21,-10.53,265.25,0.99,60.85,3.1,1004.2,58.93,35.772507,-78.678795,223.23,NaN,,17.64,44.041935,196.5,13 / 21,85011,2018-03-09 17:32:30:395
-8.8391,0.1962,5.6064,-8.4895,-0.1783,4.9059,-0.057,-0.0387,0.7695,-0.0154,-0.0165,0.0166,1.0,33.31,-0.32,-9.39,265.69,1.12,60.21,3.1,1004.21,58.413,35.7724,-78.678825,222.25,NaN,,18.22,44.041935,199.3,13 / 21,85513,2018-03-09 17:32:30:897
-8.5759,-0.3661,5.671,-8.4508,-0.1474,4.9731,0.213,-0.2812,0.6327,-0.0317,0.0088,-0.0123,1.0,34.47,0.29,-9.04,266.93,0.86,59.52,3.1,1004.24,61.522,35.7724,-78.678825,222.25,NaN,,18.22,44.041935,199.3,13 / 21,86011,2018-03-09 17:32:31:395
-8.5472,-0.3015,5.9486,-8.3826,-0.0912,5.0886,-0.2186,0.0092,0.9471,-0.0095,0.0033,-0.0064,15.0,34.22,-0.29,-12.95,267.22,0.5,58.82,3.1,1004.26,61.722,35.772335,-78.67885,216.9,NaN,,20.48,48.935486,198.5,13 / 21,86513,2018-03-09 17:32:31:897
-8.7936,-0.0742,5.7141,-8.3772,-0.0811,5.0977,-0.1175,0.0267,0.5319,0.0025,-0.0204,0.0144,0.0,34.39,-0.2,-10.47,268.22,0.47,58.68,3.1,1004.3,62.184,35.772335,-78.67885,216.9,NaN,,20.48,48.935486,198.5,13 / 21,87012,2018-03-09 17:32:32:396
-8.8558,0.3517,5.8552,-8.3431,-0.0618,5.1536,-0.1399,0.4085,0.3868,-0.0119,0.0124,-0.0162,1.0,36.0,-0.23,-11.78,278.76,0.35,58.27,3.1,1004.31,58.231,35.772285,-78.678856,220.16,NaN,,19.12,48.935486,192.6,13 / 21,87512,2018-03-09 17:32:32:896
-8.5137,-0.3302,5.6949,-8.3467,-0.1117,5.1468,-0.1906,-0.1383,0.7761,0.0064,-0.0222,-0.0315,19.0,38.06,1.25,-10.04,272.86,0.65,58.34,3.1,1004.34,60.295,35.772285,-78.678856,220.16,NaN,,19.12,48.935486,192.6,13 / 21,88011,2018-03-09 17:32:33:395
-8.6668,-0.2321,6.3793,-8.2881,-0.0667,5.2416,-0.2014,0.1664,0.5359,-1.0E-4,-0.0033,-0.0186,0.0,38.26,-0.15,-5.01,269.27,0.33,57.95,3.1,1004.34,60.72,35.772247,-78.67887,220.1,NaN,,18.5,48.935486,196.5,12 / 21,88512,2018-03-09 17:32:33:896
-8.2385,-0.0479,6.7932,-8.2155,0.011,5.3549,0.8008,0.0872,1.0089,9.0E-4,-0.0596,-7.0E-4,0.0,40.75,-0.29,-7.14,270.15,-0.06,56.9,3.1,1004.39,61.178,35.772247,-78.67887,220.1,NaN,,18.5,48.935486,196.5,12 / 21,89012,2018-03-09 17:32:34:396
-7.7504,0.0957,7.0014,-8.1027,0.0142,5.5242,0.2347,0.2031,1.4918,0.0231,0.0224,0.0327,18.0,38.85,-1.08,-9.49,259.91,-0.03,55.82,3.1,1004.43,60.907,35.772205,-78.67888,222.71,NaN,,17.14,44.041935,191.9,12 / 21,89512,2018-03-09 17:32:34:896
-7.5517,-0.134,7.0062,-8.0083,-7.0E-4,5.6602,0.4802,-0.3042,1.2829,0.0213,-0.0224,0.0365,1.0,39.09,-2.74,-9.91,257.7,0.11,55.11,3.1,1004.46,63.763,35.772205,-78.67888,222.71,NaN,,17.14,44.041935,191.9,12 / 21,90012,2018-03-09 17:32:35:396
-7.4536,0.2943,7.5589,-7.9023,-0.0031,5.8072,0.2893,0.0126,1.6413,0.0072,-0.0108,0.0066,2.0,37.88,-1.15,-10.15,266.02,-0.01,53.95,3.1,1004.51,61.285,35.77215,-78.67889,219.76,NaN,,17.82,48.935486,190.7,12 / 21,90512,2018-03-09 17:32:35:896
-7.0086,0.1938,7.657,-7.7265,0.0132,6.0392,0.8939,-0.0336,1.5559,0.0052,0.0257,0.0048,1.0,35.53,-1.52,-13.73,260.07,-0.08,51.99,3.1,1004.53,57.355,35.77215,-78.67889,219.76,NaN,,17.82,48.935486,190.7,12 / 21,91012,2018-03-09 17:32:36:396
-7.3101,0.1507,7.5757,-7.4331,0.0463,6.3967,0.2048,-0.0359,0.4261,1.0E-4,0.0067,-0.0062,0.0,37.81,-1.61,-11.99,262.66,-0.16,50.8,3.1,1004.54,63.819,35.77213,-78.6789,224.1,NaN,,11.45,48.935486,194.2,12 / 21,91511,2018-03-09 17:32:36:895
-8.875,-0.0096,5.0513,-7.9218,0.0235,5.7805,-0.6154,-0.0067,-1.2611,-0.0052,0.0096,-0.0048,1.0,38.54,-2.04,-11.89,262.69,-0.21,52.05,3.1,1004.49,58.034,35.77213,-78.6789,224.1,NaN,,11.45,48.935486,194.2,12 / 21,92012,2018-03-09 17:32:37:396
-9.1573,0.201,4.8766,-8.212,0.0352,5.3603,-0.5077,0.0495,-0.6549,5.0E-4,0.0118,-1.0E-4,11.0,36.7,-1.47,-13.0,264.7,-0.18,56.64,3.1,1004.49,63.255,35.772095,-78.67891,221.83,NaN,,11.02,48.935486,191.6,12 / 21,92511,2018-03-09 17:32:37:895
-9.0138,-0.8112,4.9914,-8.4811,-0.1228,4.9221,-0.2621,-0.7157,-0.1536,-0.0683,0.0694,0.042,22.0,36.46,-0.84,-9.81,261.98,0.59,59.37,3.1,1004.51,56.604,35.772095,-78.67891,221.83,NaN,,11.02,48.935486,191.6,12 / 21,93011,2018-03-09 17:32:38:395
-9.2674,-0.5599,4.4554,-8.6667,-0.1493,4.5866,-0.2403,-0.7627,-0.4709,-0.1445,0.0739,0.0917,2.0,33.21,-1.51,-10.93,247.6,0.84,61.52,3.1,1004.5,60.403,35.77207,-78.67892,224.1,NaN,,10.76,53.829033,192.5,12 / 21,93512,2018-03-09 17:32:38:896
-9.3894,-0.7466,4.5583,-8.8438,-0.366,4.2219,-0.1209,-0.384,0.1785,-0.1773,0.0303,0.1353,2.0,36.02,-2.76,-9.81,236.02,2.14,64.48,3.1,1004.5,60.798,35.77207,-78.67892,224.1,NaN,,10.76,53.829033,192.5,12 / 21,94012,2018-03-09 17:32:39:396
-8.5902,-1.2132,5.3456,-8.8077,-0.3681,4.2965,0.5011,-0.8381,0.9673,-0.2819,0.013,0.1638,1.0,34.48,-3.71,-7.62,240.37,2.15,64.21,3.1,1004.51,58.889,35.772045,-78.678925,224.81,NaN,,10.8,58.722576,192.2,12 / 21,94512,2018-03-09 17:32:39:896
-8.6572,-1.1127,5.5394,-8.7526,-0.4201,4.4029,0.4716,-0.843,1.0226,-0.2976,0.0128,0.2345,2.0,35.9,-7.9,-9.09,220.45,2.46,63.3,3.1,1004.51,59.743,35.772045,-78.678925,224.81,NaN,,10.8,58.722576,192.2,12 / 21,95011,2018-03-09 17:32:40:395
-8.54,-0.4857,4.9771,-8.7654,-0.2098,4.3926,0.514,-0.4405,0.6019,-0.3288,0.0153,0.207,8.0,37.78,-12.64,-7.13,217.79,1.42,63.35,3.1,1004.51,55.54,35.772022,-78.67895,222.77,NaN,,9.76,63.616123,194.8,12 / 21,95512,2018-03-09 17:32:40:896
-9.0879,-0.7083,4.7234,-8.7455,-0.2522,4.4298,-0.1094,-0.4368,0.1426,-0.3393,0.0141,0.1868,4.0,34.89,-15.26,-6.92,211.08,1.47,63.14,3.1,1004.49,60.656,35.772022,-78.67895,222.77,NaN,,9.76,63.616123,194.8,12 / 21,96011,2018-03-09 17:32:41:395
-8.54,-0.3852,5.0752,-8.7351,-0.1717,4.4541,0.3861,-0.2813,0.6437,-0.3316,2.0E-4,0.2324,9.0,32.95,-17.99,-9.19,199.97,1.57,63.16,3.1,1004.49,57.198,35.772038,-78.678894,217.84,NaN,,5.44,53.829033,154.9,12 / 21,96512,2018-03-09 17:32:41:896
-8.5472,-0.1723,5.0776,-8.6778,-0.1163,4.5664,0.3421,0.042,0.5016,-0.3055,-0.0014,0.161,10.0,33.89,-21.22,-8.54,200.18,0.68,62.25,3.1,1004.49,58.687,35.772038,-78.678894,217.84,NaN,,5.44,53.829033,154.9,12 / 21,97011,2018-03-09 17:32:42:395
-8.4634,0.5743,5.5107,-8.5658,-0.0062,4.7746,0.402,0.4346,0.6055,-0.2235,0.0047,0.1396,18.0,32.58,-20.85,-13.6,196.14,0.44,61.2,3.1,1004.49,62.916,35.772038,-78.67888,218.0,NaN,,4.64,53.829033,139.6,12 / 21,97512,2018-03-09 17:32:42:896
-8.2816,0.658,5.8959,-8.4555,0.1629,4.9648,0.4036,0.542,0.8528,-0.1145,0.002,0.0492,25.0,31.45,-21.82,-14.44,189.32,-0.96,59.76,3.1,1004.5,64.058,35.772038,-78.67888,218.0,NaN,,4.64,53.829033,139.6,12 / 21,98012,2018-03-09 17:32:43:396
-8.4132,0.6532,5.6351,-8.2751,0.3783,5.2487,0.0991,0.2433,0.1464,-0.0467,0.0079,0.018,30.0,32.45,-20.14,-15.59,190.41,-1.99,57.91,3.1,1004.52,60.136,35.772015,-78.67885,217.47,NaN,,5.8,53.829033,100.0,12 / 21,98512,2018-03-09 17:32:43:896
-8.5208,0.6461,5.5011,-8.2445,0.4735,5.289,0.0319,0.0906,-0.0789,-0.0164,-0.0026,0.0111,28.0,33.83,-20.72,-16.61,191.86,-2.58,57.32,3.1,1004.5,61.175,35.772015,-78.67885,217.47,NaN,,5.8,53.829033,100.0,12 / 21,99012,2018-03-09 17:32:44:396
-8.9707,0.4762,4.6181,-8.2737,0.474,5.2432,-0.4536,-0.0079,-0.8436,-0.0083,0.0067,-0.0011,25.0,34.09,-21.02,-18.78,186.91,-2.82,57.4,3.1,1004.5,59.284,35.772015,-78.67884,217.97,NaN,,5.08,53.829033,102.6,13 / 21,99511,2018-03-09 17:32:44:895
-9.0449,0.4546,4.5894,-8.5545,0.5061,4.7682,-0.1991,-0.0507,-0.3645,0.0152,0.0016,-0.0019,23.0,27.36,-20.68,-24.95,156.52,-3.0,60.23,3.1,1004.48,63.166,35.772015,-78.67884,217.97,NaN,,5.08,53.829033,102.6,13 / 21,100012,2018-03-09 17:32:45:396
-9.2889,0.1819,4.2186,-8.6871,0.454,4.5275,-0.2444,-0.2495,-0.4624,-0.002,-6.0E-4,-0.0089,18.0,25.72,-21.75,-27.95,148.2,-2.86,61.99,3.1,1004.48,62.053,35.77201,-78.678825,218.11,NaN,,5.15,53.829033,99.4,13 / 21,100512,2018-03-09 17:32:45:896
-9.119,-0.3589,4.2401,-8.8146,0.2121,4.2929,-0.0962,-0.4243,-0.1144,-0.0626,0.0065,0.0245,7.0,26.07,-23.21,-28.45,148.15,-1.38,63.98,3.1,1004.48,53.489,35.77201,-78.678825,218.11,NaN,,5.15,53.829033,99.4,13 / 21,101012,2018-03-09 17:32:46:396
-8.9707,-0.5719,4.3645,-8.8219,0.0928,4.2821,0.1471,-0.8822,-0.0752,-0.2406,0.0163,0.0767,14.0,25.89,-23.55,-26.72,151.34,-0.72,64.01,3.1,1004.48,54.916,35.772007,-78.67881,217.07,NaN,,5.76,53.829033,99.4,13 / 21,101512,2018-03-09 17:32:46:896
-9.009,-1.2802,5.0369,-8.8036,-0.117,4.3189,0.1612,-0.9534,0.5629,-0.3298,-0.0045,0.2135,14.0,26.36,-25.07,-29.44,150.16,0.68,63.87,3.1,1004.48,58.408,35.772007,-78.67881,217.07,NaN,,5.76,53.829033,99.4,13 / 21,102013,2018-03-09 17:32:47:397
-8.9946,-1.7898,4.9316,-8.73,-0.6155,4.4248,0.2879,-1.1684,0.3122,-0.4497,0.001,0.2556,49.0,24.42,-24.56,-29.41,149.76,1.18,63.82,3.1,1004.48,59.318,35.772,-78.678795,217.54,NaN,,5.83,53.829033,103.1,13 / 21,102511,2018-03-09 17:32:47:895
-8.6094,-1.7994,4.3406,-8.7817,-0.7776,4.2951,0.3995,-0.9253,0.0193,-0.4762,0.0104,0.2617,21.0,23.45,-23.53,-36.4,140.34,4.55,63.94,3.1,1004.48,62.579,35.772,-78.678795,217.54,NaN,,5.83,53.829033,103.1,13 / 21,103011,2018-03-09 17:32:48:395
-8.9372,-1.3591,4.5966,-8.8509,-0.7342,4.1586,0.1039,-0.7462,0.3212,-0.4707,0.0234,0.2404,18.0,20.17,-20.5,-38.22,131.12,4.4,64.42,3.1,1004.48,62.815,35.772,-78.678764,214.48,NaN,,7.34,53.829033,85.7,13 / 21,103512,2018-03-09 17:32:48:896
-9.5067,-0.7202,4.867,-8.9424,-0.6407,3.9742,-0.1563,-0.0922,0.6624,-0.344,-0.0071,0.222,19.0,19.73,-15.96,-40.02,123.01,4.1,65.94,3.1,1004.45,60.282,35.772,-78.678764,214.48,NaN,,7.34,53.829033,85.7,13 / 21,104012,2018-03-09 17:32:49:396
-8.8654,-0.4044,4.4004,-8.9873,-0.413,3.9024,0.517,0.1317,0.3123,-0.173,0.0466,0.0744,17.0,17.18,-13.4,-41.43,114.93,2.41,66.53,3.1,1004.46,59.533,35.772015,-78.678734,214.79,NaN,,12.96,48.935486,60.5,12 / 21,104512,2018-03-09 17:32:49:896
-8.5711,-0.737,3.6754,-9.0229,-0.2936,3.8303,0.6519,-0.3057,-0.1615,-0.0634,0.0224,-0.0119,11.0,16.96,-12.17,-43.49,111.3,1.47,66.95,3.1,1004.46,63.365,35.772015,-78.678734,214.79,NaN,,12.96,48.935486,60.5,12 / 21,105012,2018-03-09 17:32:50:396
-9.2052,-0.6485,4.6349,-8.9938,-0.2569,3.9007,-0.218,0.0038,0.6452,-0.0518,-0.012,0.0119,19.0,19.46,-11.41,-43.44,111.91,1.26,66.97,3.1,1004.46,61.762,35.77204,-78.6787,215.6,NaN,,11.45,53.829033,37.9,12 / 21,105512,2018-03-09 17:32:50:896
-9.3033,-0.1531,4.3932,-8.9967,-0.2119,3.8968,0.2934,0.4712,0.165,-0.0537,-0.0014,-0.0017,3.0,15.3,-10.99,-41.69,109.57,1.14,66.7,3.1,1004.45,62.482,35.77204,-78.6787,215.6,NaN,,11.45,53.829033,37.9,12 / 21,106012,2018-03-09 17:32:51:396
-9.2722,0.3111,4.5177,-8.9408,-0.1771,4.025,0.0137,0.2838,0.4604,-0.0351,-0.0047,0.0115,3.0,18.99,-10.59,-39.97,112.04,1.03,65.76,3.1,1004.45,62.033,35.77207,-78.67869,211.52,NaN,,11.92,53.829033,26.7,11 / 21,106512,2018-03-09 17:32:51:896
-8.3366,0.7322,5.2211,-8.8704,-0.0721,4.181,0.4281,0.3829,0.6601,-0.0142,0.0083,0.0327,2.0,16.66,-11.67,-43.04,111.24,0.55,64.87,3.1,1004.45,62.101,35.77207,-78.67869,211.52,NaN,,11.92,53.829033,26.7,11 / 21,107011,2018-03-09 17:32:52:395
-8.8439,0.2847,5.202,-8.8151,-0.024,4.2969,0.6294,0.1815,0.9341,-0.037,0.0047,-0.0148,5.0,18.14,-10.55,-40.35,111.55,0.14,64.01,3.1,1004.44,64.502,35.772114,-78.67867,211.25,NaN,,16.78,53.829033,15.6,11 / 21,107511,2018-03-09 17:32:52:895
-8.4299,0.1172,4.9771,-8.8191,-0.0478,4.2886,0.5931,0.0338,0.3984,-0.014,0.0226,0.0036,2.0,16.1,-10.43,-43.19,107.77,0.25,64.03,3.1,1004.44,63.634,35.772114,-78.67867,211.25,NaN,,16.78,53.829033,15.6,11 / 21,108011,2018-03-09 17:32:53:395
-8.2361,0.1292,4.3837,-8.7835,-0.0293,4.3611,0.606,0.0448,0.12,-0.0056,0.0118,0.0119,3.0,15.22,-9.78,-43.72,107.14,0.17,63.6,3.1,1004.45,61.983,35.77216,-78.67867,213.66,NaN,,16.85,53.829033,13.7,11 / 21,108512,2018-03-09 17:32:53:896
-8.3462,0.1005,4.1779,-8.7275,0.0214,4.4723,0.5907,0.1162,0.04,-0.0117,-0.0202,-0.0013,4.0,18.7,-9.18,-41.94,107.13,-0.19,63.03,3.1,1004.45,60.075,35.77216,-78.67867,213.66,NaN,,16.85,53.829033,13.7,11 / 21,109013,2018-03-09 17:32:54:397
-9.1047,0.2273,5.1805,-8.6741,0.0391,4.5747,0.4737,-0.0241,0.3188,-0.0058,0.0197,0.0095,4.0,15.41,-9.72,-41.02,108.64,-0.23,62.19,3.1,1004.43,63.726,35.77221,-78.67866,210.15,NaN,,17.06,53.829033,15.0,11 / 21,109512,2018-03-09 17:32:54:896
-8.2816,-0.201,4.9316,-8.6647,0.0321,4.5927,0.3481,-0.0214,0.6812,-0.0072,-0.0204,-0.0019,15.0,18.3,-10.38,-41.92,109.01,-0.19,62.07,3.1,1004.44,59.784,35.77221,-78.67866,210.15,NaN,,17.06,53.829033,15.0,11 / 21,110012,2018-03-09 17:32:55:396
-8.4682,0.5456,5.269,-8.6091,0.104,4.695,0.0797,0.0172,0.6079,0.0025,0.0143,0.0251,7.0,18.47,-10.33,-36.12,112.77,-0.61,61.39,3.1,1004.45,65.463,35.77225,-78.678635,207.85,NaN,,17.64,58.722576,17.8,11 / 21,110512,2018-03-09 17:32:55:896
-8.6572,0.3661,5.9294,-8.5626,0.1463,4.7782,0.2254,0.2973,0.9671,-0.0184,-0.0159,-0.0115,10.0,20.23,-11.43,-36.7,114.89,-0.85,60.84,3.1,1004.45,61.465,35.77225,-78.678635,207.85,NaN,,17.64,58.722576,17.8,11 / 21,111012,2018-03-09 17:32:56:396
-8.2409,0.3206,6.0084,-8.5244,0.1289,4.8465,0.7605,0.2594,0.7869,-0.0087,0.0206,0.0025,10.0,17.5,-11.82,-41.47,109.31,-0.69,60.54,3.1,1004.47,59.555,35.77232,-78.67859,210.38,NaN,,18.47,63.616123,16.8,11 / 21,111512,2018-03-09 17:32:56:896
-8.0255,0.3709,6.3745,-8.3787,0.1022,5.0949,0.502,0.2597,1.199,-0.0113,-0.0153,0.0056,6.0,18.71,-12.76,-41.69,115.66,-0.57,59.07,3.1,1004.47,62.098,35.77232,-78.67859,210.38,NaN,,18.47,63.616123,16.8,11 / 21,112011,2018-03-09 17:32:57:395
-8.1763,0.0718,6.0515,-8.2888,0.0785,5.2402,0.4904,0.0301,0.746,-0.0056,0.0167,0.0044,6.0,16.21,-11.49,-42.68,111.07,-0.46,57.7,3.1,1004.48,62.554,35.772377,-78.67857,210.25,NaN,,19.3,63.616123,11.0,12 / 21,112512,2018-03-09 17:32:57:896
-8.2433,0.0718,5.9988,-8.2445,0.1024,5.3092,0.3393,-0.1887,0.47,-0.0137,0.0086,-0.0062,4.0,20.04,-10.77,-39.09,115.59,-0.68,57.33,3.1,1004.48,61.992,35.772377,-78.67857,210.25,NaN,,19.3,63.616123,11.0,12 / 21,113012,2018-03-09 17:32:58:396
-8.8511,1.5553,5.6255,-8.2212,0.1992,5.3426,0.0657,0.7872,-0.1483,0.0129,-0.0199,0.0732,11.0,21.59,-9.86,-36.48,118.03,-0.05,57.24,3.1,1004.49,62.789,35.77238,-78.67859,206.91,NaN,,8.78,58.722576,356.5,12 / 21,113512,2018-03-09 17:32:58:896
-9.7938,2.3019,4.9579,-8.2019,0.1507,5.3737,0.1526,0.2999,0.2953,-0.0302,-0.0548,-0.0249,12.0,20.64,-11.23,-38.11,115.91,-0.73,57.0,3.1,1004.48,62.065,35.77238,-78.67859,206.91,NaN,,8.78,58.722576,356.5,12 / 21,114012,2018-03-09 17:32:59:396
-8.607,0.1005,5.4963,-8.2289,0.2148,5.33,-0.3206,0.4138,-0.1016,0.0215,-0.0271,-0.0424,8.0,19.51,-11.72,-36.94,110.59,-1.15,57.05,3.1,1004.48,63.441,35.77239,-78.67857,206.06,NaN,,8.42,58.722576,359.3,12 / 21,114512,2018-03-09 17:32:59:896
-8.4251,0.0766,5.6806,-8.1955,0.1753,5.3827,-0.0974,0.0657,0.273,0.0119,0.0116,-0.0044,7.0,19.12,-10.64,-39.08,114.99,-1.02,56.7,3.1,1004.48,59.162,35.77239,-78.67857,206.06,NaN,,8.42,58.722576,359.3,12 / 21,115011,2018-03-09 17:33:00:395
-8.0901,0.4164,6.0371,-8.1478,0.2197,5.4531,0.3291,0.1378,0.4718,0.0033,0.0085,-0.0133,8.0,18.96,-9.27,-40.54,109.09,-1.28,56.21,3.1,1004.48,58.847,35.772423,-78.67857,203.18,NaN,,9.18,63.616123,358.5,14 / 21,115512,2018-03-09 17:33:00:896
-8.0327,0.1484,6.4008,-8.0495,0.2113,5.5974,0.4192,0.2373,0.6745,0.0066,0.0071,-0.0123,4.0,16.26,-9.28,-43.67,106.85,-1.23,55.19,3.1,1004.51,62.316,35.772423,-78.67857,203.18,NaN,,9.18,63.616123,358.5,14 / 21,116012,2018-03-09 17:33:01:396
-8.863,0.3733,4.7904,-8.1233,0.2346,5.4889,-0.4181,0.1435,-0.755,0.0023,-4.0E-4,0.003,3.0,18.36,-8.72,-42.22,108.09,-1.37,55.95,3.1,1004.5,62.148,35.77244,-78.67859,204.71,NaN,,5.69,63.616123,350.9,14 / 21,116512,2018-03-09 17:33:01:896
-9.0473,0.6772,4.6923,-8.4876,0.4423,4.8923,-0.2339,0.1681,-0.4531,0.0471,0.0075,-0.0223,15.0,19.65,-8.37,-40.6,104.53,-2.27,59.28,3.1,1004.48,60.175,35.77244,-78.67859,204.71,NaN,,5.69,63.616123,350.9,14 / 21,117012,2018-03-09 17:33:02:396
-9.0114,1.541,4.7402,-8.6365,0.533,4.6148,-0.0648,0.8383,-0.1008,0.1381,0.0067,-0.0518,13.0,17.23,-10.64,-39.77,108.54,-3.12,61.88,3.1,1004.47,62.894,35.772457,-78.67861,203.94,NaN,,5.72,63.616123,345.5,14 / 21,117512,2018-03-09 17:33:02:896
-8.7434,1.7587,5.1948,-8.6572,0.6802,4.5564,0.2683,1.0454,0.3935,0.3,0.0022,-0.1534,10.0,16.7,-11.98,-40.16,109.58,-3.77,62.18,3.1,1004.49,61.757,35.772457,-78.67861,203.94,NaN,,5.72,63.616123,345.5,14 / 21,118012,2018-03-09 17:33:03:396
-8.6859,1.8831,4.9436,-8.6919,0.7229,4.4831,0.3986,1.1435,0.2619,0.3831,0.002,-0.2011,6.0,15.81,-15.32,-42.07,108.42,-3.9,62.44,3.1,1004.45,63.732,35.77247,-78.67858,202.35,NaN,,3.13,63.616123,29.9,13 / 21,118511,2018-03-09 17:33:03:895
-8.9228,1.7611,5.0321,-8.7293,0.7373,4.4076,0.1662,1.0557,0.4471,0.4525,-0.021,-0.2611,6.0,17.97,-18.13,-42.01,115.25,-4.21,63.15,3.1,1004.47,64.356,35.77247,-78.67858,202.35,NaN,,3.13,63.616123,29.9,13 / 21,119011,2018-03-09 17:33:04:395
-8.7984,1.6032,4.721,-8.717,0.897,4.4022,0.3612,0.8459,0.1697,0.4921,-0.0228,-0.2742,5.0,19.42,-20.81,-39.11,121.44,-5.27,62.89,3.1,1004.47,63.92,35.77248,-78.678535,201.05,NaN,,4.9,58.722576,57.8,12 / 21,119512,2018-03-09 17:33:04:896
-8.7817,0.6365,5.202,-8.7491,0.7132,4.372,0.4646,-0.0763,0.6124,0.3843,-0.0189,-0.2194,7.0,20.9,-22.11,-35.88,130.38,-4.17,63.45,3.1,1004.45,65.019,35.77248,-78.678535,201.05,NaN,,4.9,58.722576,57.8,12 / 21,120012,2018-03-09 17:33:05:396
-8.4132,0.5432,5.0871,-8.7035,0.6712,4.4687,0.2195,0.2214,0.8679,0.2719,-0.0134,-0.1726,11.0,27.73,-21.36,-27.97,146.59,-3.92,62.82,3.1,1004.46,62.491,35.772495,-78.678474,200.07,NaN,,9.43,58.722576,74.2,13 / 21,120511,2018-03-09 17:33:05:895
-9.0473,-1.7061,5.9198,-8.651,0.4185,4.5996,-0.05,-2.0396,0.9417,0.096,-0.1079,-0.2227,14.0,32.32,-20.19,-19.75,170.51,-3.4,62.5,3.1,1004.47,60.141,35.772495,-78.678474,200.07,NaN,,9.43,58.722576,74.2,13 / 21,121011,2018-03-09 17:33:06:395
-8.0231,-0.6245,5.8504,-8.5,0.2882,4.8823,0.8057,-0.893,0.8037,0.0435,-0.0071,-0.0708,44.0,31.97,-18.78,-14.72,188.95,-2.17,60.37,3.1,1004.48,63.322,35.77251,-78.67846,196.9,NaN,,9.58,58.722576,83.7,13 / 21,121511,2018-03-09 17:33:06:895
-7.5398,0.0144,6.4271,-8.3658,0.2964,5.1084,1.1257,-0.2476,1.1362,0.0219,0.0399,-0.0492,89.0,33.47,-24.85,-15.39,190.42,-1.73,58.59,3.1,1004.49,61.086,35.77251,-78.67846,196.9,NaN,,9.58,58.722576,83.7,13 / 21,122012,2018-03-09 17:33:07:396
-8.6285,0.603,4.7665,-8.4717,0.2384,4.9339,0.0653,0.2785,-0.3319,0.0481,-0.0383,-0.0152,102.0,32.62,-24.7,-17.76,185.98,-1.22,59.93,3.1,1004.47,58.866,35.772514,-78.67845,202.97,NaN,,8.68,53.829033,97.3,13 / 21,122512,2018-03-09 17:33:07:896
-8.8439,0.5862,4.9101,-8.5314,0.3855,4.8204,-0.0759,0.2282,-0.102,0.1216,-0.0045,-0.0634,132.0,30.71,-24.68,-18.58,177.06,-1.88,60.42,3.1,1004.48,63.006,35.772514,-78.67845,202.97,NaN,,8.68,53.829033,97.3,13 / 21,123012,2018-03-09 17:33:08:396
-9.076,0.8207,4.6947,-8.5822,0.4715,4.7216,-0.2083,0.2131,-0.0979,0.1933,0.0041,-0.1156,154.0,31.64,-24.53,-16.89,181.31,-2.76,61.18,3.1,1004.47,65.971,35.77252,-78.67844,205.41,NaN,,5.18,34.254837,106.2,13 / 21,123512,2018-03-09 17:33:08:896
-9.1454,1.3065,4.678,-8.7067,0.6083,4.4714,0.0345,0.2635,-0.1569,0.3098,-0.0016,-0.1231,181.0,33.14,-21.95,-13.98,187.83,-3.13,62.61,3.1,1004.46,65.023,35.77252,-78.67844,205.41,NaN,,5.18,34.254837,106.2,13 / 21,124012,2018-03-09 17:33:09:396
-9.0162,1.3639,4.745,-8.7552,0.6095,4.3755,0.1295,0.8756,0.2758,0.3768,0.0045,-0.177,197.0,34.99,-20.14,-10.71,198.15,-3.56,63.45,3.1,1004.46,63.911,35.77252,-78.67842,206.88,NaN,,6.19,29.361288,106.3,14 / 21,124512,2018-03-09 17:33:09:896
-9.0353,1.6032,4.9507,-8.745,0.7936,4.3665,0.1605,0.776,0.3574,0.4257,-0.0183,-0.2748,214.0,34.8,-16.03,-7.93,213.18,-4.83,63.43,3.1,1004.48,62.285,35.77252,-78.67842,206.88,NaN,,6.19,29.361288,106.3,14 / 21,125011,2018-03-09 17:33:10:395
-8.7218,2.2349,5.0417,-8.7021,0.9031,4.4303,0.2898,1.3471,0.5298,0.4896,-0.0383,-0.2841,213.0,35.16,-11.41,-9.03,209.27,-4.49,63.38,3.1,1004.47,62.755,35.77251,-78.678406,208.07,NaN,,9.11,24.467743,139.2,14 / 21,125512,2018-03-09 17:33:10:896
-8.808,1.1797,5.1182,-8.7542,0.7393,4.3575,0.2324,0.4126,0.5565,0.4381,-0.002,-0.2782,197.0,34.59,-5.98,-9.39,247.5,-4.58,63.39,3.1,1004.46,63.355,35.77251,-78.678406,208.07,NaN,,9.11,24.467743,139.2,14 / 21,126012,2018-03-09 17:33:11:396
-9.2435,0.0096,4.6014,-8.836,0.4952,4.2249,0.0431,-0.1358,0.0379,0.2493,0.0033,-0.1923,212.0,33.66,-0.11,-9.26,284.92,-2.89,64.45,3.1,1004.44,62.12,35.772495,-78.67839,211.69,NaN,,10.04,24.467743,150.4,14 / 21,126511,2018-03-09 17:33:11:895
-9.1262,-0.402,4.2329,-8.8619,0.2298,4.1934,0.0776,-0.6851,-0.0626,0.0679,-0.0086,-0.0543,234.0,32.05,3.28,-10.33,309.1,-1.34,64.68,3.1,1004.46,59.307,35.772495,-78.67839,211.69,NaN,,10.04,24.467743,150.4,14 / 21,127011,2018-03-09 17:33:12:395
-8.9707,-0.3446,4.0726,-8.8647,0.0671,4.1933,0.133,-0.6099,-0.2068,0.0168,0.0031,0.0011,239.0,34.48,3.09,-7.43,292.38,-0.67,64.63,3.1,1004.46,61.59,35.77246,-78.67839,212.26,NaN,,16.99,24.467743,190.4,13 / 21,127511,2018-03-09 17:33:12:895
-9.2339,-0.2967,4.1348,-8.8639,0.0374,4.1952,0.0337,-0.4932,-0.0723,0.0141,-0.0083,0.0052,250.0,34.11,3.05,-7.17,290.84,-0.22,64.67,3.1,1004.47,62.096,35.77246,-78.67839,212.26,NaN,,16.99,24.467743,190.4,13 / 21,128011,2018-03-09 17:33:13:395
-8.5831,-0.2704,4.4171,-8.846,0.014,4.233,0.4621,-0.2719,0.1217,-0.0025,0.0079,-0.0235,280.0,34.12,2.85,-7.67,292.23,-0.08,64.43,3.1,1004.48,64.365,35.772408,-78.67843,213.78,NaN,,19.62,24.467743,190.2,13 / 21,128513,2018-03-09 17:33:13:897
-8.2217,0.3206,5.0776,-8.7858,0.0278,4.3564,0.6632,0.2301,0.4686,0.0143,0.0179,0.0044,257.0,32.63,2.63,-9.07,294.74,-0.04,63.68,3.1,1004.49,62.343,35.772408,-78.67843,213.78,NaN,,19.62,24.467743,190.2,13 / 21,129012,2018-03-09 17:33:14:396
-8.6285,-0.2153,5.2498,-8.7165,-0.093,4.4926,0.6458,-0.0664,0.4647,-1.0E-4,-0.0079,-0.029,245.0,33.44,2.62,-9.0,291.66,0.36,62.9,3.1,1004.51,63.624,35.772346,-78.67845,214.28,NaN,,23.98,24.467743,190.6,13 / 21,129512,2018-03-09 17:33:14:896
-8.3844,-0.2034,5.4173,-8.5977,-0.217,4.7119,0.2836,-0.2077,0.6607,0.0044,-0.0059,-0.0103,262.0,32.37,4.19,-10.07,296.95,1.21,61.46,3.1,1004.53,62.729,35.772346,-78.67845,214.28,NaN,,23.98,24.467743,190.6,13 / 21,130012,2018-03-09 17:33:15:396
-8.6285,-0.3996,5.5561,-8.4509,-0.2566,4.9685,0.1598,-0.1047,0.3444,0.0029,-0.0149,-0.0082,242.0,32.07,2.55,-10.24,285.76,1.5,59.55,3.1,1004.56,63.75,35.77229,-78.67846,212.13,NaN,,24.66,19.574192,191.4,13 / 21,130512,2018-03-09 17:33:15:896
-8.016,-0.2513,6.7406,-8.3511,-0.2754,5.1336,0.7386,-0.3676,1.0725,0.0099,0.0043,0.0103,226.0,33.78,2.12,-8.95,274.01,1.67,58.7,3.1,1004.57,63.872,35.77229,-78.67846,212.13,NaN,,24.66,19.574192,191.4,13 / 21,131011,2018-03-09 17:33:16:395
-8.3964,-0.548,5.0776,-8.3625,-0.188,5.119,-0.0162,-0.3654,0.1283,0.0186,0.0253,0.0455,248.0,36.5,0.87,-5.52,266.09,1.62,58.13,3.1,1004.63,61.061,35.77224,-78.67847,212.7,NaN,,24.95,19.574192,192.8,13 / 21,131512,2018-03-09 17:33:16:896
-8.2241,0.4427,5.1278,-8.3196,-0.2549,5.1856,0.1511,-0.2071,0.054,-0.0074,-0.0053,-0.0256,241.0,33.56,1.47,-9.56,271.72,1.2,58.14,3.1,1004.65,60.026,35.77224,-78.67847,212.7,NaN,,24.95,19.574192,192.8,13 / 21,132012,2018-03-09 17:33:17:396
-6.7884,0.2752,3.1681,-8.5344,-0.2808,4.8223,-2.0E-4,-0.3844,0.3845,-9.0E-4,0.2425,0.0264,239.0,33.69,1.91,-7.78,276.07,1.64,60.53,3.1,1004.65,63.919,35.772175,-78.678474,218.4,NaN,,23.83,14.680644,189.9,14 / 21,132513,2018-03-09 17:33:17:897
-7.7767,-0.3805,5.7165,-8.2809,-0.241,5.2477,0.7295,0.0973,0.2574,0.0101,-0.1794,0.0231,255.0,31.36,0.72,-9.61,271.05,1.56,58.56,3.1,1004.63,64.887,35.772175,-78.678474,218.4,NaN,,23.83,14.680644,189.9,14 / 21,133012,2018-03-09 17:33:18:396
-9.4253,-0.3852,5.525,-8.3663,-0.2617,5.1096,-0.4421,-0.3144,-0.2809,0.018,-0.0204,0.0598,228.0,31.09,0.26,-10.64,262.77,1.53,58.59,3.1,1004.65,56.844,35.77213,-78.6785,221.6,NaN,,22.14,14.680644,193.9,14 / 21,133511,2018-03-09 17:33:18:895
-8.418,-0.0742,6.0538,-8.1432,-0.1551,5.4621,0.1944,0.1569,-0.1048,0.0394,0.0961,0.0791,222.0,31.79,0.49,-11.72,264.88,1.31,55.17,3.1,1004.64,62.175,35.77213,-78.6785,221.6,NaN,,22.14,14.680644,193.9,14 / 21,134011,2018-03-09 17:33:19:395
-8.1595,-0.134,4.4865,-8.4353,-0.1109,5.0004,0.2075,-0.0063,-0.2914,0.0131,-0.0652,0.028,221.0,32.44,0.52,-8.78,267.08,0.79,59.51,3.1,1004.65,63.433,35.77208,-78.67851,219.1,NaN,,22.25,14.680644,193.3,14 / 21,134512,2018-03-09 17:33:19:896
-9.0951,-0.134,5.2498,-8.3983,-0.1057,5.0625,-0.1536,0.1236,-0.1757,-0.004,-0.0136,0.004,214.0,33.17,-0.67,-9.34,261.74,0.62,58.92,3.1,1004.66,55.586,35.77208,-78.67851,219.1,NaN,,22.25,14.680644,193.3,14 / 21,135012,2018-03-09 17:33:20:396
-8.4897,0.0574,4.733,-8.4392,-0.1695,4.9921,0.0878,0.2803,-0.2472,-0.0209,-0.0118,-0.0229,247.0,34.73,-1.84,-9.45,248.8,0.63,59.4,3.1,1004.65,55.653,35.77202,-78.67853,214.9,NaN,,24.26,14.680644,193.5,14 / 21,135511,2018-03-09 17:33:20:895
-8.729,-0.3398,5.3073,-8.4269,-0.3371,5.0044,0.1934,0.122,-0.104,-0.0209,0.0364,-0.0123,243.0,33.75,-2.55,-10.34,245.31,1.83,59.05,3.1,1004.69,66.049,35.77202,-78.67853,214.9,NaN,,24.26,14.680644,193.5,14 / 21,136012,2018-03-09 17:33:21:396
-8.3773,-0.1125,5.1565,-8.4838,-0.2357,4.9132,0.4733,0.1383,-0.2044,0.0233,0.0328,0.049,236.0,32.54,-0.99,-8.29,259.5,1.38,59.92,3.1,1004.71,61.876,35.77196,-78.678535,219.19,NaN,,24.77,14.680644,190.9,14 / 21,136512,2018-03-09 17:33:21:896
-8.9563,-0.6317,6.6401,-8.3987,-0.2584,5.0562,1.0506,0.1959,-0.5756,-0.019,-0.0348,-0.0078,236.0,31.55,-0.5,-10.49,256.97,1.43,59.12,3.1,1004.71,62.706,35.77196,-78.678535,219.19,NaN,,24.77,14.680644,190.9,14 / 21,137012,2018-03-09 17:33:22:396
-8.6859,-0.3972,5.8911,-8.394,-0.2714,5.0634,-0.0442,-0.0605,0.4483,0.0174,0.0558,0.0368,212.0,32.74,-1.4,-9.81,256.68,1.79,58.65,3.1,1004.76,65.92,35.771904,-78.67855,221.2,NaN,,26.14,14.680644,190.9,14 / 21,137516,2018-03-09 17:33:22:900
-8.3821,-0.1507,5.4532,-8.3835,-0.1463,5.0858,0.5263,-0.1343,-0.0642,0.0082,-0.0257,0.0341,219.0,38.42,-1.97,-3.63,260.79,1.03,58.96,3.1,1004.78,58.102,35.771904,-78.67855,221.2,NaN,,26.14,14.680644,190.9,14 / 21,138012,2018-03-09 17:33:23:396
-8.3605,-0.3398,5.7476,-8.3318,0.0197,5.1721,0.2948,-0.2246,0.2213,0.0182,-0.0037,0.0563,253.0,38.1,-3.36,-3.34,259.53,0.4,58.15,3.1,1004.78,54.241,35.77184,-78.67856,223.66,NaN,,26.03,14.680644,189.2,14 / 21,138512,2018-03-09 17:33:23:896
-7.9801,0.6963,6.5061,-8.0998,0.0079,5.5284,0.549,0.3955,0.5162,-0.003,-0.0855,0.0162,257.0,38.27,-5.6,-4.68,250.2,0.11,56.42,3.1,1004.82,54.144,35.77184,-78.67856,223.66,NaN,,26.03,14.680644,189.2,14 / 21,139012,2018-03-09 17:33:24:396
-7.9274,-0.2943,6.8243,-8.02,-0.2196,5.6393,0.7284,-0.0336,0.5393,-0.0258,-0.089,-0.0052,282.0,37.53,-5.25,-6.04,251.19,1.28,54.89,3.1,1004.85,63.897,35.771774,-78.67857,222.54,NaN,,25.02,14.680644,193.1,13 / 21,139512,2018-03-09 17:33:24:896
-7.8485,-0.5838,7.6379,-7.7736,-0.3402,5.9687,0.2663,0.027,1.3909,-0.0219,0.0206,-0.0078,307.0,37.02,-4.88,-8.59,248.16,1.88,52.59,3.1,1004.93,63.544,35.771774,-78.67857,222.54,NaN,,25.02,14.680644,193.1,13 / 21,140012,2018-03-09 17:33:25:396
-7.59,-0.4331,7.5254,-7.6781,-0.2626,6.095,0.9537,0.6925,0.8376,-0.0606,-0.0246,-0.087,298.0,35.93,-4.27,-10.99,250.27,1.53,51.56,3.1,1004.96,62.902,35.771725,-78.67858,218.83,NaN,,22.57,14.680644,188.7,13 / 21,140513,2018-03-09 17:33:25:897
-7.4082,-0.0048,7.6738,-7.5149,-0.254,6.2954,0.3666,0.0335,1.5452,-0.0038,0.0476,0.0058,362.0,35.18,-2.82,-10.44,255.24,1.55,50.09,3.1,1004.98,61.62,35.771725,-78.67858,218.83,NaN,,22.57,14.680644,188.7,13 / 21,141013,2018-03-09 17:33:26:397
-7.9681,-2.1416,8.0686,-7.5108,-0.2679,6.2997,-0.0622,-0.6932,1.3412,-0.1019,-0.089,-0.2058,321.0,38.8,-3.44,-6.74,258.69,1.57,50.01,3.1,1004.99,60.025,35.771683,-78.67859,215.72,NaN,,17.21,14.680644,188.1,13 / 21,141511,2018-03-09 17:33:26:895
-7.6953,-0.7274,6.5946,-7.3829,-0.3253,6.4465,-0.1113,-0.4003,0.0194,0.0143,-0.0346,0.015,326.0,39.04,-2.95,-5.24,254.48,2.11,49.47,3.1,1005.03,64.186,35.771683,-78.67859,215.72,NaN,,17.21,14.680644,188.1,13 / 21,142012,2018-03-09 17:33:27:396
-8.863,-0.6078,4.8335,-7.3917,-0.3495,6.4351,-0.8848,0.0066,-1.8165,-0.0567,0.0804,-0.0818,355.0,39.0,-5.28,-7.08,254.26,1.5,48.07,3.1,1005.03,57.11,35.77166,-78.67859,215.85,NaN,,9.79,14.680644,188.0,13 / 21,142513,2018-03-09 17:33:27:897
-8.3533,-1.4644,5.0991,-7.5198,-0.611,6.265,-0.5584,-0.3947,-1.2793,-0.1003,-0.0094,0.007,383.0,34.84,-2.4,-10.62,253.34,3.05,49.97,3.1,1005.0,55.694,35.77166,-78.67859,215.85,NaN,,9.79,14.680644,188.0,13 / 21,143012,2018-03-09 17:33:28:396
-8.7817,-1.931,5.0656,-7.7372,-0.943,5.9512,-0.8035,-0.954,-1.1268,-0.1921,0.0012,0.0424,404.0,34.9,-3.45,-10.74,245.37,4.83,52.07,3.1,1005.02,57.803,35.771645,-78.6786,216.94,NaN,,7.74,14.680644,186.0,13 / 21,143511,2018-03-09 17:33:28:895
-9.3177,-2.2827,5.2307,-7.9227,-1.1644,5.6608,-0.7638,-0.8308,-1.0062,-0.232,0.0236,0.116,413.0,34.58,-3.28,-11.16,239.59,6.49,53.85,3.1,1005.04,60.49,35.771645,-78.6786,216.94,NaN,,7.74,14.680644,186.0,13 / 21,144011,2018-03-09 17:33:29:395
-9.0879,-2.5579,5.0273,-8.2179,-1.3815,5.1699,-0.5963,-1.1138,-0.4865,-0.2815,0.0271,0.1253,370.0,35.59,-6.61,-8.89,225.78,7.62,57.23,3.1,1005.05,60.653,35.77161,-78.67859,213.76,NaN,,11.63,14.680644,175.3,13 / 21,144511,2018-03-09 17:33:29:895
-8.5783,-2.7326,2.9503,-8.4213,-1.4125,4.8225,-0.5834,-0.745,-0.6267,-0.3125,0.0609,0.188,423.0,37.28,-9.92,-7.17,220.87,8.54,58.84,3.1,1005.06,60.931,35.77161,-78.67859,213.76,NaN,,11.63,14.680644,175.3,13 / 21,145012,2018-03-09 17:33:30:396
-9.8369,-3.7256,4.8981,-8.8366,-1.3387,4.0365,-0.0027,-1.7629,-0.3247,-0.3013,0.0886,0.3031,473.0,36.81,-14.16,-7.45,206.88,8.3,64.38,3.1,1005.1,62.519,35.771576,-78.67856,213.11,NaN,,14.76,14.680644,158.7,13 / 21,145512,2018-03-09 17:33:30:896
-9.2913,-3.8118,4.544,-8.9545,-1.2749,3.7897,0.1074,-1.9123,0.4795,-0.3416,-0.0037,0.2017,566.0,36.7,-19.09,-7.66,195.75,6.94,66.65,3.1,1005.08,64.261,35.771576,-78.67856,213.11,NaN,,14.76,14.680644,158.7,13 / 21,146012,2018-03-09 17:33:31:396
-9.1478,-2.211,3.4672,-9.0955,-1.1529,3.4805,0.4898,-1.2778,-0.1784,-0.3516,0.012,0.1744,545.0,34.99,-23.6,-12.59,180.75,6.75,69.06,3.1,1005.05,62.838,35.771538,-78.67852,211.62,NaN,,20.48,14.680644,137.5,13 / 21,146512,2018-03-09 17:33:31:896
-9.4253,-0.4642,3.795,-9.1279,-1.0126,3.439,0.2116,0.4951,0.2753,-0.2212,0.0281,0.163,474.0,34.11,-25.21,-17.03,179.69,6.91,68.98,3.1,1005.03,64.285,35.771538,-78.67852,211.62,NaN,,20.48,14.680644,137.5,13 / 21,147012,2018-03-09 17:33:32:396
-8.607,0.658,4.0295,-9.1562,-0.8255,3.4137,1.1929,-0.9404,-0.0216,0.0017,-0.0253,0.1412,446.0,35.17,-25.6,-17.67,170.97,4.83,69.55,3.1,1005.01,61.008,35.771515,-78.67845,213.92,NaN,,22.86,14.680644,114.7,13 / 21,147512,2018-03-09 17:33:32:896
-9.411,1.0433,5.4197,-9.1028,-0.5463,3.607,0.2089,1.4346,1.3288,-0.0353,0.0444,0.0201,480.0,33.57,-29.32,-12.32,182.57,3.49,68.34,3.1,1005.01,61.784,35.771515,-78.67845,213.92,NaN,,22.86,14.680644,114.7,13 / 21,148012,2018-03-09 17:33:33:396
-9.3703,-0.268,4.1204,-9.1347,-0.4527,3.5387,0.2542,0.3841,0.2237,-0.026,0.0409,0.0164,475.0,31.78,-28.78,-12.85,178.94,2.65,68.82,3.1,1004.99,63.452,35.77149,-78.678375,212.71,NaN,,25.16,14.680644,108.4,13 / 21,148512,2018-03-09 17:33:33:896
-9.1382,-0.0479,3.5031,-9.118,-0.4614,3.5804,0.3861,0.5049,-0.2375,-0.0231,0.0029,0.0085,516.0,30.75,-29.24,-14.39,176.92,2.61,68.46,3.1,1004.93,61.094,35.77149,-78.678375,212.71,NaN,,25.16,14.680644,108.4,13 / 21,149011,2018-03-09 17:33:34:395
-9.5928,0.0431,3.6419,-9.1303,-0.4861,3.5457,0.1312,0.1251,-0.0725,-0.051,0.0108,0.015,507.0,29.27,-29.43,-14.42,175.23,2.84,68.78,3.1,1004.9,62.542,35.77147,-78.67831,214.02,NaN,,25.85,14.680644,107.5,13 / 21,149513,2018-03-09 17:33:34:897
-9.1693,-0.1172,3.9266,-9.11,-0.6567,3.5703,-0.5588,-0.2021,0.5558,-0.0738,0.0079,-0.0278,441.0,27.88,-26.83,-18.71,165.61,3.38,68.5,3.1,1004.86,63.686,35.77147,-78.67831,214.02,NaN,,25.85,14.680644,107.5,13 / 21,150011,2018-03-09 17:33:35:395
-9.2387,-0.8686,3.8812,-9.1013,-0.7572,3.5725,0.6425,-0.6384,-0.2722,-0.0351,-0.0149,0.016,387.0,31.81,-29.86,-20.72,166.53,4.43,68.57,3.1,1004.83,64.162,35.771446,-78.67822,213.96,NaN,,28.3,14.680644,105.4,13 / 21,150512,2018-03-09 17:33:35:896
-9.8991,-0.682,4.4004,-9.0864,-0.7655,3.6087,-0.1449,-0.1506,0.1486,-0.028,-8.0E-4,0.0229,448.0,34.45,-29.74,-21.23,168.07,4.48,68.34,3.1,1004.79,63.434,35.771446,-78.67822,213.96,NaN,,28.3,14.680644,105.4,13 / 21,151012,2018-03-09 17:33:36:396
-8.863,-0.9236,3.5988,-9.0547,-0.7633,3.6878,0.417,-0.0875,-0.0786,-0.026,-0.0047,0.0243,15366.0,34.42,-28.16,-19.43,171.23,4.46,67.84,3.1,1004.75,66.174,35.771427,-78.67813,215.78,NaN,,30.31,14.680644,102.9,13 / 21,151513,2018-03-09 17:33:36:897
-9.1478,-0.3446,5.3743,-8.9924,-0.6634,3.8557,0.6009,0.3098,0.7074,0.0033,-0.0279,0.0247,403.0,34.03,-28.67,-16.86,169.63,4.14,67.42,3.1,1004.73,61.065,35.771427,-78.67813,215.78,NaN,,30.31,14.680644,102.9,13 / 21,152011,2018-03-09 17:33:37:395
-8.3964,-0.6293,5.1063,-8.8753,-0.5285,4.1376,0.8477,0.1391,1.0514,0.008,-0.0428,0.0203,417.0,33.2,-27.93,-18.52,173.11,3.28,65.56,3.1,1004.7,64.331,35.77141,-78.67803,217.71,NaN,,32.26,14.680644,100.8,13 / 21,152512,2018-03-09 17:33:37:896
-8.7242,-0.0742,5.9988,-8.778,-0.4612,4.348,0.6221,0.375,1.4725,-0.0044,-0.0157,-0.0017,426.0,31.96,-30.2,-16.94,178.14,2.7,63.65,3.1,1004.69,63.336,35.77141,-78.67803,217.71,NaN,,32.26,14.680644,100.8,13 / 21,153012,2018-03-09 17:33:38:396
-7.6977,-0.4187,5.8863,-8.6969,-0.5109,4.5025,1.2342,0.188,1.2595,-0.0188,0.0181,-0.0302,430.0,32.67,-28.63,-17.66,178.26,2.78,62.81,3.1,1004.67,63.55,35.7714,-78.67793,218.33,NaN,,30.6,14.680644,101.1,13 / 21,153512,2018-03-09 17:33:38:896
-7.7623,-0.9954,7.0517,-8.5101,-0.5053,4.847,1.2655,-0.5503,1.822,0.0573,-0.0061,0.0991,440.0,33.66,-27.55,-19.0,184.68,2.98,61.66,3.1,1004.67,65.022,35.7714,-78.67793,218.33,NaN,,30.6,14.680644,101.1,13 / 21,154011,2018-03-09 17:33:39:395
-8.1595,-0.8997,5.7739,-8.3854,-0.4297,5.0667,0.0485,-1.136,1.0418,0.0237,-0.0039,0.0274,445.0,34.89,-27.16,-18.62,183.66,2.51,58.86,3.1,1004.7,61.338,35.77139,-78.67786,219.58,NaN,,26.75,14.680644,100.0,13 / 21,154512,2018-03-09 17:33:39:896
-8.3605,-0.5527,5.5968,-8.34,-0.2983,5.1503,-0.0378,-0.3491,0.5885,-0.0134,-0.0104,-0.0223,453.0,35.46,-29.39,-17.73,185.7,1.34,58.44,3.1,1004.67,60.507,35.77139,-78.67786,219.58,NaN,,26.75,14.680644,100.0,13 / 21,155012,2018-03-09 17:33:40:396
-8.4873,-0.2441,6.2524,-8.3066,-0.1664,5.21,0.1149,-0.2313,0.5802,0.0066,0.034,0.0239,440.0,37.53,-30.55,-18.22,188.86,0.97,57.9,3.1,1004.66,60.159,35.77138,-78.677795,221.86,NaN,,19.91,14.680644,100.2,14 / 21,155513,2018-03-09 17:33:40:897
-7.8341,-0.0502,6.0778,-8.2807,0.0239,5.2535,0.4939,0.0182,0.4808,-0.0109,-0.0495,-0.0213,438.0,34.81,-30.2,-20.88,181.13,-0.27,58.21,3.1,1004.65,59.929,35.77138,-78.677795,221.86,NaN,,19.91,14.680644,100.2,14 / 21,156011,2018-03-09 17:33:41:395
-7.8508,0.1412,6.9918,-8.0782,0.0279,5.5599,0.5543,0.1093,1.2292,-0.0078,-0.0143,-0.0046,453.0,33.01,-29.53,-18.7,185.84,-0.16,55.46,3.1,1004.66,61.667,35.771374,-78.67775,223.66,NaN,,15.95,14.680644,99.3,14 / 21,156512,2018-03-09 17:33:41:896
-7.5302,0.3996,7.1593,-7.8889,0.0799,5.8249,0.7217,0.3423,1.2374,-0.0152,0.0122,-0.016,466.0,30.6,-28.52,-20.26,190.49,-0.3,54.69,3.1,1004.67,56.649,35.771374,-78.67775,223.66,NaN,,15.95,14.680644,99.3,14 / 21,157012,2018-03-09 17:33:42:396
-9.1621,0.1005,4.3789,-7.8437,0.0176,5.8862,-0.9637,0.125,-1.651,-0.0089,0.0395,-0.0109,470.0,31.43,-28.91,-19.11,186.72,-0.1,53.11,3.1,1004.66,55.631,35.771366,-78.67773,223.74,NaN,,10.01,14.680644,99.8,14 / 21,157512,2018-03-09 17:33:42:896
-9.3081,0.1771,4.8239,-8.0459,-0.0225,5.6066,-0.962,-0.0275,-0.9614,-0.0174,0.0476,0.0058,464.0,31.28,-28.56,-18.77,185.22,0.2,54.3,3.1,1004.61,62.94,35.771366,-78.67773,223.74,NaN,,10.01,14.680644,99.8,14 / 21,158012,2018-03-09 17:33:43:396
-9.4205,0.0144,2.7015,-8.3331,-0.0538,5.1699,-0.8818,-0.1854,-2.5151,-0.0372,0.0314,0.0058,449.0,31.12,-27.63,-18.91,181.4,0.21,57.41,3.1,1004.59,61.769,35.771366,-78.67771,224.69,NaN,,3.96,14.680644,99.8,14 / 21,158512,2018-03-09 17:33:43:896
-9.5641,-0.2273,2.4694,-8.538,-0.002,4.8241,-0.6303,0.1537,-2.3455,-0.0885,0.0436,0.0363,435.0,30.35,-30.04,-19.89,175.96,0.15,59.69,3.1,1004.58,64.572,35.771366,-78.67771,224.69,NaN,,3.96,14.680644,99.8,14 / 21,159011,2018-03-09 17:33:44:395
-9.7125,0.0838,3.204,-8.678,-0.1677,4.5646,-1.0363,-0.8095,-1.5198,-0.1752,-0.0998,0.1035,403.0,30.08,-30.99,-20.51,171.69,0.98,62.26,3.1,1004.56,64.837,35.771362,-78.6777,225.3,NaN,,6.66,14.680644,95.5,14 / 21,159513,2018-03-09 17:33:44:897
-9.3464,-1.4357,3.4529,-8.6711,-0.3406,4.5679,-0.6046,-1.1084,-1.1516,-0.2656,-0.0257,0.0848,422.0,28.12,-30.37,-25.6,162.34,1.99,62.22,3.1,1004.58,63.641,35.771362,-78.6777,225.3,NaN,,6.66,14.680644,95.5,14 / 21,160012,2018-03-09 17:33:45:396
-9.0975,-1.5601,3.4672,-8.7471,-0.5664,4.3975,-0.169,-1.6515,-0.9105,-0.3286,0.0208,0.2359,351.0,26.18,-31.06,-30.5,154.17,3.31,63.31,3.1,1004.55,63.594,35.771362,-78.677666,224.82,NaN,,12.1,14.680644,87.2,14 / 21,160512,2018-03-09 17:33:45:896
-8.7721,-2.7924,4.5392,-8.7591,-0.7738,4.3417,0.1114,-1.8476,0.0267,-0.3536,-0.0295,0.253,336.0,28.33,-28.99,-30.69,154.37,4.53,63.63,3.1,1004.55,64.135,35.771362,-78.677666,224.82,NaN,,12.1,14.680644,87.2,14 / 21,161012,2018-03-09 17:33:46:396
-9.0305,-2.6178,3.6706,-8.8642,-0.8421,4.1094,0.0638,-1.727,-0.5761,-0.3597,0.0047,0.1815,409.0,24.85,-26.07,-34.59,144.03,4.76,64.86,3.1,1004.53,64.67,35.77139,-78.677605,223.83,NaN,,17.6,14.680644,66.2,14 / 21,161512,2018-03-09 17:33:46:896
-8.7242,-3.1801,3.3739,-8.8702,-0.9451,4.074,0.3198,-2.1146,-0.3793,-0.3281,0.0269,0.0866,456.0,22.39,-24.58,-36.3,140.12,4.95,65.03,3.1,1004.54,62.903,35.77139,-78.677605,223.83,NaN,,17.6,14.680644,66.2,14 / 21,162011,2018-03-09 17:33:47:395
-9.0377,-2.4096,3.9386,-8.9541,-0.8966,3.8976,0.4087,-1.4073,-0.4633,-0.2483,-0.0332,0.1109,469.0,19.01,-22.58,-39.07,132.45,5.0,66.5,3.1,1004.53,62.425,35.77143,-78.67755,223.89,NaN,,22.61,14.680644,43.8,14 / 21,162512,2018-03-09 17:33:47:896
-9.0568,-2.2229,3.9338,-8.9778,-1.1196,3.7836,0.0903,-1.1979,0.1251,-0.2286,0.0377,0.1044,453.0,17.14,-19.69,-42.74,125.64,6.42,66.75,3.1,1004.53,65.474,35.77143,-78.67755,223.89,NaN,,22.61,14.680644,43.8,14 / 21,163012,2018-03-09 17:33:48:396
-9.0209,-1.6869,4.4004,-8.9921,-1.0914,3.7578,0.3505,-0.6147,0.4302,-0.1738,0.0151,0.132,471.0,17.53,-16.94,-43.69,121.51,6.39,67.32,3.1,1004.55,65.579,35.771492,-78.67751,224.97,NaN,,27.72,14.680644,28.9,14 / 21,163512,2018-03-09 17:33:48:896
-10.0379,-1.1605,3.8931,-9.0498,-1.0129,3.6395,-0.2959,-0.3755,0.1025,-0.1308,0.0163,0.0783,494.0,18.43,-16.2,-43.25,122.99,6.11,67.53,3.1,1004.54,62.566,35.771492,-78.67751,224.97,NaN,,27.72,14.680644,28.9,14 / 21,164012,2018-03-09 17:33:49:396
-9.679,-0.2345,3.3499,-9.0838,-0.8795,3.589,-0.1191,0.6799,-0.1196,-0.0471,-0.002,0.0551,484.0,19.47,-14.06,-41.22,118.45,5.15,68.44,3.1,1004.53,65.444,35.77157,-78.67749,225.84,NaN,,31.43,14.680644,15.5,14 / 21,164514,2018-03-09 17:33:49:898
-9.3775,-0.3326,4.2257,-9.0992,-0.7175,3.5861,-0.0604,0.5342,0.2361,-0.0184,0.0163,0.005,474.0,16.78,-14.89,-40.63,117.67,4.66,68.48,3.1,1004.51,62.67,35.77157,-78.67749,225.84,NaN,,31.43,14.680644,15.5,14 / 21,165012,2018-03-09 17:33:50:396
-9.7603,-0.122,4.8072,-9.0806,-0.5793,3.6575,-0.0577,0.4482,0.7423,0.0058,0.0047,0.0109,487.0,16.52,-14.49,-42.36,115.9,3.39,68.06,3.1,1004.52,63.215,35.771656,-78.677475,224.65,NaN,,36.18,14.680644,10.0,14 / 21,165512,2018-03-09 17:33:50:896
-9.3368,-0.0287,3.8835,-9.1038,-0.4742,3.6148,0.193,0.6265,0.275,0.0021,0.047,0.006,457.0,17.19,-14.24,-42.86,114.92,2.92,68.14,3.1,1004.51,64.731,35.771656,-78.677475,224.65,NaN,,36.18,14.680644,10.0,14 / 21,166012,2018-03-09 17:33:51:396
-9.6191,0.2632,4.2951,-9.1022,-0.3535,3.6324,0.0601,0.4002,0.3927,0.0198,-0.0061,0.0197,451.0,16.25,-13.88,-44.24,113.4,2.07,68.24,3.1,1004.5,63.526,35.771748,-78.67746,223.96,NaN,,40.28,14.680644,9.2,14 / 21,166514,2018-03-09 17:33:51:898
-9.5498,-0.6915,4.5153,-9.0795,-0.3231,3.6916,0.4567,1.2006,0.2705,0.0019,-0.0171,-0.0085,442.0,18.32,-12.75,-42.89,116.0,1.94,68.14,3.1,1004.48,64.048,35.771748,-78.67746,223.96,NaN,,40.28,14.680644,9.2,14 / 21,167012,2018-03-09 17:33:52:396
-9.7316,-0.1842,4.6349,-9.0792,-0.3953,3.6854,-0.1491,0.3732,0.6914,-0.0158,0.043,-0.0477,441.0,19.17,-13.15,-41.82,114.02,1.93,67.77,3.1,1004.48,63.165,35.771854,-78.67743,225.12,NaN,,43.2,14.680644,9.8,14 / 21,167512,2018-03-09 17:33:52:896
-9.131,-0.5264,4.5272,-9.0079,-0.5032,3.8438,0.2424,-0.0063,0.6261,0.0103,-0.0033,0.0019,439.0,19.29,-12.83,-41.91,115.28,2.94,66.89,3.1,1004.44,62.733,35.771854,-78.67743,225.12,NaN,,43.2,14.680644,9.8,14 / 21,168012,2018-03-09 17:33:53:396
-8.9803,-0.0646,5.1278,-8.9789,-0.3628,3.9265,0.4971,0.3337,1.0706,0.0019,0.0314,-0.0072,436.0,18.02,-14.39,-43.29,115.33,2.12,66.38,3.1,1004.42,64.238,35.77197,-78.67741,227.11,NaN,,45.9,14.680644,10.5,14 / 21,168512,2018-03-09 17:33:53:896
-8.418,-0.1196,5.0417,-8.8971,-0.3282,4.1114,0.721,0.2054,1.4041,-0.0207,-0.0071,-0.0412,434.0,19.17,-16.7,-41.42,121.81,1.92,65.2,3.1,1004.41,64.035,35.77197,-78.67741,227.11,NaN,,45.9,14.680644,10.5,14 / 21,169011,2018-03-09 17:33:54:395
-7.992,-0.6078,5.994,-8.7702,-0.4495,4.3648,1.1787,-0.2273,1.1299,-0.006,-0.0136,0.0105,462.0,18.48,-15.33,-42.66,118.37,2.64,63.97,3.1,1004.43,62.626,35.772083,-78.677376,227.95,NaN,,46.8,14.680644,10.7,14 / 21,169512,2018-03-09 17:33:54:896
-8.0088,-0.5551,6.4271,-8.6595,-0.422,4.5831,0.824,0.1005,1.7802,0.0031,0.0124,0.0237,454.0,18.73,-14.7,-42.02,120.31,2.65,62.51,3.1,1004.43,63.731,35.772083,-78.677376,227.95,NaN,,46.8,14.680644,10.7,14 / 21,170012,2018-03-09 17:33:55:396
-8.1476,-0.1603,6.4606,-8.5247,-0.3769,4.833,0.7477,0.092,1.5498,-0.0109,-0.0024,-0.0064,517.0,21.18,-14.72,-40.09,123.65,2.14,60.75,3.1,1004.43,63.544,35.77219,-78.67735,228.87,NaN,,43.67,14.680644,10.6,14 / 21,170512,2018-03-09 17:33:55:896
-7.8939,-0.5264,6.9918,-8.1729,-0.3781,5.4065,0.842,0.1281,1.1446,-0.0068,-0.009,-1.0E-4,479.0,22.1,-15.89,-38.39,126.56,2.18,57.11,3.1,1004.41,58.529,35.77219,-78.67735,228.87,NaN,,43.67,14.680644,10.6,14 / 21,171012,2018-03-09 17:33:56:396
-8.2433,-0.0431,6.408,-8.089,-0.3204,5.535,0.0814,0.1442,0.788,0.0139,0.0163,0.0188,488.0,20.61,-16.9,-39.95,130.86,1.87,55.62,3.1,1004.42,62.016,35.772285,-78.67734,229.7,NaN,,37.94,14.680644,10.2,14 / 21,171513,2018-03-09 17:33:56:897
-8.1643,-0.2297,6.2094,-8.0529,-0.2406,5.5913,0.2935,0.1757,0.6615,0.0054,0.0014,-0.004,502.0,19.22,-17.2,-41.22,128.07,1.41,55.34,3.1,1004.42,58.18,35.772285,-78.67734,229.7,NaN,,37.94,14.680644,10.2,14 / 21,172011,2018-03-09 17:33:57:395
-8.4514,-0.347,6.0371,-8.0528,-0.2445,5.5913,0.0018,0.0362,0.0039,1.0E-4,-0.002,0.0011,510.0,18.77,-15.64,-42.59,124.77,1.43,55.23,3.1,1004.41,62.043,35.772354,-78.67732,229.72,NaN,,30.78,14.680644,9.9,14 / 21,172512,2018-03-09 17:33:57:896
-8.8367,-0.2584,5.6662,-8.0881,-0.2402,5.5404,-0.4332,-0.0606,-0.1514,-0.0034,-0.0138,0.0029,511.0,19.53,-14.57,-41.08,131.88,1.41,55.61,3.1,1004.39,62.233,35.772354,-78.67732,229.72,NaN,,30.78,14.680644,9.9,14 / 21,173012,2018-03-09 17:33:58:396
-8.3797,-0.3565,5.616,-8.0928,-0.2289,5.534,0.0444,-0.1465,-0.1035,0.0082,-0.0169,0.0062,505.0,19.41,-15.13,-41.37,124.52,1.34,55.63,3.1,1004.4,58.385,35.77242,-78.677315,230.29,NaN,,25.85,14.680644,10.4,14 / 21,173512,2018-03-09 17:33:58:896
-8.6094,-0.4211,5.6638,-8.0933,-0.2035,5.5343,-0.1773,-0.1703,-0.1574,0.0023,-0.0018,-0.0044,489.0,17.46,-15.99,-40.29,125.59,1.14,55.56,3.1,1004.39,62.295,35.77242,-78.677315,230.29,NaN,,25.85,14.680644,10.4,14 / 21,174012,2018-03-09 17:33:59:396
-10.6576,-0.0407,7.255,-8.1632,-0.1071,5.4333,-1.6458,-0.0631,1.3849,-0.0135,0.0255,-0.0339,481.0,15.07,-15.71,-38.83,124.17,0.46,56.05,3.1,1004.38,61.988,35.772472,-78.6773,230.81,NaN,,22.43,14.680644,10.2,14 / 21,174512,2018-03-09 17:33:59:896
-7.9466,0.0335,3.4122,-8.5171,-0.1505,4.8586,1.0674,0.3016,-2.6919,-0.0074,0.0983,-0.0194,436.0,16.83,-15.87,-43.13,120.25,0.83,59.37,3.1,1004.36,66.23,35.772472,-78.6773,230.81,NaN,,22.43,14.680644,10.2,14 / 21,175012,2018-03-09 17:34:00:396
-7.8676,0.0814,4.264,-8.2812,-0.2203,5.2482,0.5253,-0.038,-1.1293,0.0038,-0.0548,0.0034,464.0,18.19,-16.51,-44.86,122.22,1.26,57.6,3.1,1004.3,61.701,35.772526,-78.67728,232.57,NaN,,19.69,14.680644,10.7,14 / 21,175512,2018-03-09 17:34:00:896
-7.5541,0.3589,2.6249,-8.2622,-0.195,5.2791,-0.3741,0.0431,-1.2919,-0.0109,-0.2291,-0.0078,474.0,19.38,-15.72,-44.39,122.02,1.14,57.42,3.1,1004.27,63.789,35.772526,-78.67728,232.57,NaN,,19.69,14.680644,10.7,14 / 21,176011,2018-03-09 17:34:01:395
-6.9846,1.0504,4.9986,-8.3997,-0.1597,5.0586,0.3013,0.1449,-1.4808,0.0072,0.3016,0.0274,492.0,19.6,-16.06,-45.11,120.54,0.93,58.94,3.1,1004.32,64.474,35.77257,-78.67727,233.85,NaN,,19.73,14.680644,10.0,14 / 21,176511,2018-03-09 17:34:01:895
-9.1119,0.3039,4.2377,-8.574,-0.1737,4.7568,-0.1989,0.4401,-0.7,-0.005,0.0112,-0.0017,470.0,24.15,-18.19,-42.28,126.75,1.01,60.98,3.1,1004.26,54.542,35.77257,-78.67727,233.85,NaN,,19.73,14.680644,10.0,14 / 21,177012,2018-03-09 17:34:02:396
-9.4636,-0.5623,4.1539,-8.6744,-0.1542,4.5718,-0.1812,0.1886,-0.8474,-0.0211,0.0043,-0.0345,451.0,22.55,-19.08,-43.74,124.84,0.74,62.0,3.1,1004.24,55.134,35.772625,-78.67725,233.75,NaN,,21.92,14.680644,10.1,14 / 21,177512,2018-03-09 17:34:02:896
-8.9635,-0.2823,4.3789,-8.6232,-0.1515,4.6678,-0.0248,-0.1328,-0.4031,-0.0103,-0.0299,-0.0089,465.0,21.31,-18.91,-43.49,125.04,0.81,61.67,3.1,1004.22,59.579,35.772625,-78.67725,233.75,NaN,,21.92,14.680644,10.1,14 / 21,178011,2018-03-09 17:34:03:395
-9.533,-0.3254,4.1228,-8.6517,-0.1343,4.6153,-0.3857,-0.1011,-0.7339,-0.0066,0.021,-0.0017,470.0,20.78,-17.39,-44.03,121.26,0.68,61.68,3.1,1004.2,63.5,35.77268,-78.67724,235.54,NaN,,23.04,14.680644,11.6,14 / 21,178511,2018-03-09 17:34:03:895
-9.2818,-0.2345,4.2425,-8.7781,-0.1538,4.3693,-0.1823,-0.0326,-0.3251,-0.004,0.0,0.0032,447.0,21.46,-16.68,-44.54,119.89,0.82,62.97,3.1,1004.2,64.222,35.77268,-78.67724,235.54,NaN,,23.04,14.680644,11.6,14 / 21,179012,2018-03-09 17:34:04:396
-9.2889,0.0,3.8907,-8.9011,-0.1216,4.1142,-0.2432,0.0856,-0.2465,-0.0111,-0.0071,-0.0152,414.0,21.61,-17.12,-41.98,121.39,0.79,64.92,3.1,1004.16,65.049,35.772747,-78.67722,235.3,NaN,,25.49,14.680644,9.9,14 / 21,179512,2018-03-09 17:34:04:896
-9.5569,-0.1412,4.0415,-8.9718,-0.1363,3.957,-0.2609,-0.0462,-0.284,-0.0054,0.0112,-0.007,413.0,22.93,-18.75,-43.56,118.8,0.82,65.69,3.1,1004.16,64.484,35.772747,-78.67722,235.3,NaN,,25.49,14.680644,9.9,14 / 21,180012,2018-03-09 17:34:05:396
-9.5809,0.0287,4.2832,-8.9802,-0.184,3.9361,-0.2414,0.0275,-0.0894,0.0013,0.0022,-0.0078,404.0,21.49,-18.92,-44.92,121.03,1.08,66.27,3.1,1004.14,62.336,35.772823,-78.67721,236.2,NaN,,28.55,14.680644,9.6,14 / 21,180512,2018-03-09 17:34:05:896
-9.4253,-0.2967,4.0175,-9.0061,-0.1884,3.8763,-0.0383,0.0371,0.1105,0.0013,0.0029,0.004,386.0,23.1,-19.85,-44.79,122.76,1.1,66.71,3.1,1004.12,65.998,35.772823,-78.67721,236.2,NaN,,28.55,14.680644,9.6,14 / 21,181013,2018-03-09 17:34:06:397
-8.9133,-0.2752,3.9984,-8.9702,-0.1869,3.9585,0.3757,-0.1715,0.1319,0.0082,0.0086,0.0141,391.0,22.05,-18.0,-45.99,119.43,1.12,66.25,3.1,1004.1,64.438,35.7729,-78.67719,237.1,NaN,,32.15,14.680644,10.4,14 / 21,181511,2018-03-09 17:34:06:895
-8.9157,0.0048,4.0893,-8.9567,-0.1184,3.9918,0.4229,0.1814,0.1044,0.0131,-0.0037,0.0164,378.0,22.96,-18.55,-44.72,121.02,0.91,66.16,3.1,1004.07,63.123,35.7729,-78.67719,237.1,NaN,,32.15,14.680644,10.4,14 / 21,182011,2018-03-09 17:34:07:395
-9.0353,0.0694,4.6588,-8.8913,-0.057,4.1366,0.084,-0.0316,0.4109,0.0084,0.0112,0.0048,377.0,23.65,-18.97,-44.45,122.54,0.39,65.66,3.1,1004.07,63.584,35.77299,-78.67717,238.04,NaN,,34.99,14.680644,10.6,14 / 21,182512,2018-03-09 17:34:07:896
-8.8319,0.2106,4.7569,-8.862,0.0016,4.1994,0.3365,0.1778,0.3573,0.0095,2.0E-4,-0.0056,380.0,21.04,-17.98,-42.64,121.07,-0.01,64.65,3.1,1004.08,61.247,35.77299,-78.67717,238.04,NaN,,34.99,14.680644,10.6,14 / 21,183012,2018-03-09 17:34:08:396
-8.3079,0.1507,4.7761,-8.8089,0.0623,4.3092,0.3459,0.2073,0.7834,0.0325,-0.0022,0.0095,371.0,20.25,-19.43,-44.05,121.46,-0.21,64.08,3.1,1004.09,60.859,35.773075,-78.677155,239.64,NaN,,33.73,14.680644,8.0,14 / 21,183512,2018-03-09 17:34:08:896
-8.6381,0.3063,4.8383,-8.7636,0.1449,4.3987,0.4166,-0.0331,0.3772,0.0217,-0.0155,-0.0068,384.0,20.64,-19.82,-42.68,123.82,-0.85,63.35,3.1,1004.06,58.952,35.773075,-78.677155,239.64,NaN,,33.73,14.680644,8.0,14 / 21,184035,2018-03-09 17:34:09:419
-8.7075,-0.1244,4.9555,-8.7322,0.1671,4.46,0.3988,0.361,0.6132,0.0262,0.0141,-0.0188,345.0,19.76,-19.03,-43.86,121.46,-0.89,62.95,3.1,1004.06,58.92,35.773155,-78.67714,240.52,NaN,,32.44,19.574192,11.2,14 / 21,184512,2018-03-09 17:34:09:896
-8.1452,0.7896,6.2788,-8.6398,0.3074,4.6292,0.8671,0.2007,1.3197,0.0447,0.0073,0.0011,354.0,24.11,-19.28,-39.38,127.61,-1.8,61.82,3.1,1004.07,59.289,35.773155,-78.67714,240.52,NaN,,32.44,19.574192,11.2,14 / 21,185011,2018-03-09 17:34:10:395
-7.8556,0.256,6.3769,-8.5402,0.3269,4.8093,0.7651,0.1629,1.278,0.0369,0.0047,-0.0274,380.0,26.91,-22.73,-40.13,134.62,-1.94,60.9,3.1,1004.07,60.748,35.773243,-78.67712,242.74,NaN,,33.48,19.574192,11.2,14 / 21,185512,2018-03-09 17:34:10:896
-8.5567,-0.2177,7.3651,-8.3922,0.4061,5.0573,0.5085,-0.536,1.6422,0.0575,0.0102,0.0162,301.0,28.1,-23.59,-40.52,136.71,-2.31,59.2,3.1,1004.1,66.672,35.773243,-78.67712,242.74,NaN,,33.48,19.574192,11.2,14 / 21,186032,2018-03-09 17:34:11:416
-8.1906,0.5815,6.8004,-8.2926,0.4581,5.2147,0.5006,0.1458,1.4246,0.0518,-0.0338,0.0172,278.0,23.43,-21.95,-39.66,128.38,-2.45,58.34,3.1,1004.1,63.148,35.773315,-78.67709,245.57,NaN,,29.56,14.680644,14.2,13 / 21,186512,2018-03-09 17:34:11:896
-8.0518,0.28,6.0921,-8.1825,0.4161,5.3892,0.3843,-0.0769,0.6141,0.0137,-0.0118,-0.0229,288.0,23.46,-20.96,-40.62,131.25,-2.41,57.03,3.1,1004.1,60.112,35.773315,-78.67709,245.57,NaN,,29.56,14.680644,14.2,13 / 21,187012,2018-03-09 17:34:12:396
-8.5376,0.3183,6.1591,-8.159,0.3681,5.4282,-0.0082,-0.2356,0.4009,0.0296,0.0012,-0.0058,307.0,21.43,-18.69,-40.71,127.77,-2.16,56.42,3.1,1004.09,56.177,35.77336,-78.677086,248.57,NaN,,22.1,14.680644,16.9,14 / 21,187512,2018-03-09 17:34:12:896
-8.3318,0.079,6.1878,-8.1348,0.3004,5.4686,0.1352,-0.0505,0.4538,0.0066,0.0057,-0.0211,325.0,24.3,-20.22,-36.78,136.56,-2.01,56.46,3.1,1004.07,59.608,35.77336,-78.677086,248.57,NaN,,22.1,14.680644,16.9,14 / 21,188012,2018-03-09 17:34:13:396
-8.1212,-0.0191,6.6018,-8.069,0.2119,5.5693,0.4026,-0.3194,0.6563,0.0082,0.0065,-0.0117,337.0,24.37,-20.55,-36.72,139.92,-1.29,55.5,3.1,1004.08,55.155,35.773396,-78.67707,250.35,NaN,,16.24,14.680644,18.9,14 / 21,188512,2018-03-09 17:34:13:896
-7.2933,0.1388,7.401,-7.9803,0.1982,5.6961,1.0099,0.1297,1.3599,-0.0032,-0.001,-0.0042,334.0,23.03,-21.36,-39.44,137.64,-1.16,54.48,3.1,1004.08,60.648,35.773396,-78.67707,250.35,NaN,,16.24,14.680644,18.9,14 / 21,189012,2018-03-09 17:34:14:396
-7.9011,0.0335,6.6497,-7.8661,0.1877,5.8532,0.4373,-0.1652,0.7926,-0.0089,0.0037,-0.0044,335.0,21.27,-20.68,-41.66,133.48,-1.16,53.47,3.1,1004.08,59.557,35.77342,-78.677055,254.24,NaN,,11.7,14.680644,25.3,14 / 21,189512,2018-03-09 17:34:14:896
-9.2171,0.0598,4.1252,-8.1185,0.1523,5.4989,-0.712,-0.1323,-1.4921,0.0011,0.0029,-0.0017,334.0,20.49,-20.48,-42.62,128.45,-0.89,55.89,3.1,1004.03,56.004,35.77342,-78.677055,254.24,NaN,,11.7,14.680644,25.3,14 / 21,190011,2018-03-09 17:34:15:395
-9.6909,0.0383,3.4146,-8.6167,0.1226,4.6806,-0.8404,-0.027,-1.4106,0.0025,0.0132,0.0089,335.0,19.87,-19.79,-43.93,124.35,-0.65,60.74,3.1,1004.01,59.745,35.77342,-78.677055,254.24,NaN,,11.7,14.680644,25.3,14 / 21,190512,2018-03-09 17:34:15:896
-9.9494,0.0694,2.9815,-8.9587,0.1045,3.9876,-0.5109,-0.1789,-1.1982,-0.0038,0.0035,0.0022,335.0,21.94,-21.03,-41.48,125.86,-0.61,66.01,3.1,1004.0,63.219,35.77342,-78.677055,254.24,NaN,,11.7,14.680644,25.3,14 / 21,191012,2018-03-09 17:34:16:396
-9.8584,-0.1436,2.7517,-9.1389,0.091,3.5556,-0.4437,-0.4371,-0.758,-0.0195,0.0179,0.0315,343.0,21.84,-19.33,-40.51,121.84,-0.52,68.48,3.1,1003.99,64.933,35.77344,-78.677055,258.37,NaN,,4.64,14.680644,25.4,14 / 21,191512,2018-03-09 17:34:16:896
-10.1264,-0.0766,3.2327,-9.1756,0.1067,3.4594,-0.4721,-0.2048,-0.1177,-0.1005,-0.0193,-0.0089,361.0,20.34,-18.44,-41.51,118.67,-0.62,69.34,3.1,1003.98,63.306,35.77344,-78.677055,258.37,NaN,,4.64,14.680644,25.4,14 / 21,192013,2018-03-09 17:34:17:397
-9.4564,-0.2249,3.2327,-9.1945,0.0902,3.4094,-0.2158,-0.2731,-0.1899,-0.0822,0.02,0.0606,386.0,18.97,-17.96,-42.48,118.37,-0.53,69.65,3.1,1003.96,63.16,35.773464,-78.67704,261.37,NaN,,11.23,14.680644,25.1,14 / 21,192512,2018-03-09 17:34:17:896
-9.5186,-0.4116,3.7831,-9.2121,0.0269,3.3626,-0.0278,-0.4293,0.3413,-0.1125,-0.0289,0.0748,401.0,19.05,-17.38,-42.6,116.53,-0.16,69.95,3.1,1003.96,63.112,35.773464,-78.67704,261.37,NaN,,11.23,14.680644,25.1,14 / 21,193012,2018-03-09 17:34:18:396
-9.8225,-0.804,3.4361,-9.2273,0.0356,3.3205,0.0358,-1.0925,-0.155,-0.1312,0.0165,0.0834,411.0,19.49,-16.03,-43.77,114.55,-0.15,70.0,3.1,1003.95,61.895,35.773514,-78.67703,260.96,NaN,,17.42,14.680644,12.2,14 / 21,193512,2018-03-09 17:34:18:896
-10.0642,-1.675,4.0917,-9.2303,0.0931,3.3111,-0.3275,-1.3897,0.2128,-0.1626,0.0104,0.0581,395.0,19.7,-14.32,-41.73,112.56,-0.69,70.19,3.1,1003.9,65.097,35.773514,-78.67703,260.96,NaN,,17.42,14.680644,12.2,14 / 21,194011,2018-03-09 17:34:19:395
-9.5378,-1.5075,3.0604,-9.2509,0.1089,3.2525,0.2036,-1.9486,-0.0773,-0.206,-0.0029,0.109,377.0,19.4,-14.46,-42.0,112.12,-0.83,70.6,3.1,1003.89,65.131,35.77357,-78.67703,258.77,NaN,,22.36,14.680644,7.2,14 / 21,194512,2018-03-09 17:34:19:896
-9.2578,-3.8548,3.7065,-9.2251,-0.1802,3.3219,0.3608,-3.775,-0.1449,-0.3255,0.0045,0.0913,372.0,17.3,-11.38,-43.24,107.95,0.45,70.19,3.1,1003.86,64.98,35.77357,-78.67703,258.77,NaN,,22.36,14.680644,7.2,14 / 21,195011,2018-03-09 17:34:20:395
-9.0712,-3.6538,4.3837,-9.1617,-0.3008,3.4846,0.3064,-3.4665,0.992,-0.3626,0.1144,0.2345,364.0,16.8,-7.68,-43.2,104.56,1.58,69.09,3.1,1003.84,68.521,35.77364,-78.67704,260.52,NaN,,27.4,14.680644,351.9,14 / 21,195512,2018-03-09 17:34:20:896
-8.985,-3.4672,3.7783,-9.1962,-0.4521,3.3757,0.4736,-3.3291,1.5288,-0.3858,0.0586,0.2259,312.0,20.92,-3.82,-41.24,101.18,2.02,69.93,3.1,1003.83,60.088,35.77364,-78.67704,260.52,NaN,,27.4,14.680644,351.9,14 / 21,196014,2018-03-09 17:34:21:398
-9.0042,-3.6132,3.5605,-9.3283,-0.533,2.9782,0.8547,-3.1731,0.3409,-0.3998,-0.058,0.2039,309.0,24.58,3.29,-37.41,87.62,3.02,72.59,3.1,1003.82,60.235,35.773705,-78.67708,261.35,NaN,,31.28,14.680644,337.3,14 / 21,196512,2018-03-09 17:34:21:896
-9.8297,-1.2491,3.1274,-9.3374,-0.5496,2.9463,-0.0618,-0.8832,0.189,-0.2347,0.0037,0.1176,310.0,26.0,5.24,-32.69,82.73,3.27,72.39,3.1,1003.83,62.522,35.773705,-78.67708,261.35,NaN,,31.28,14.680644,337.3,14 / 21,197012,2018-03-09 17:34:22:396
-9.9398,-0.2082,3.149,-9.3955,-0.4354,2.7758,-0.197,0.3697,0.2122,-0.0653,0.0405,0.0164,318.0,24.81,7.52,-32.73,75.19,2.63,73.3,3.1,1003.83,62.127,35.773754,-78.67718,260.95,NaN,,34.78,14.680644,308.8,14 / 21,197512,2018-03-09 17:34:22:896
-9.1932,-0.122,3.2925,-9.3891,-0.4759,2.7907,0.2373,0.239,0.5169,-0.0549,-0.0028,-0.018,379.0,24.47,8.66,-32.27,72.5,2.59,73.6,3.1,1003.85,62.378,35.773754,-78.67718,260.95,NaN,,34.78,14.680644,308.8,14 / 21,198012,2018-03-09 17:34:23:396
-9.3392,0.3135,3.7448,-9.3515,-0.509,2.9086,0.3093,0.738,0.7505,-0.0258,-0.0075,-0.0229,309.0,23.69,9.6,-32.58,71.26,2.9,73.08,3.1,1003.88,66.611,35.77381,-78.67726,259.39,NaN,,36.86,14.680644,303.6,14 / 21,198511,2018-03-09 17:34:23:895
-9.5809,0.0168,3.5964,-9.3168,-0.5726,3.0066,0.1909,0.7179,0.4697,-0.0074,-0.0031,-0.0286,260.0,23.52,10.04,-31.92,70.72,3.35,72.11,3.1,1003.91,64.789,35.77381,-78.67726,259.39,NaN,,36.86,14.680644,303.6,14 / 21,199012,2018-03-09 17:34:24:396
-9.4421,0.0742,4.0343,-9.3042,-0.5647,3.0469,0.1841,0.5686,0.7731,0.005,0.0145,-0.0064,251.0,24.2,10.57,-29.59,66.81,3.47,71.98,3.1,1003.93,63.146,35.773865,-78.67741,257.22,NaN,,44.75,14.680644,298.1,14 / 21,199511,2018-03-09 17:34:24:895
-8.9707,-0.0096,4.0678,-9.2449,-0.4214,3.2441,0.533,0.3308,0.818,-0.004,-0.0061,-0.0029,245.0,25.13,10.12,-29.42,66.0,2.48,70.89,3.1,1003.97,65.503,35.773865,-78.67741,257.22,NaN,,44.75,14.680644,298.1,14 / 21,200012,2018-03-09 17:34:25:396
-9.2004,-0.2536,4.5057,-9.1106,-0.3069,3.6156,0.3548,0.1849,0.6224,0.0011,0.0031,-0.0056,234.0,23.95,9.1,-30.7,69.34,2.12,69.4,3.1,1004.0,66.36,35.773926,-78.677536,256.19,NaN,,49.39,14.680644,296.3,14 / 21,200512,2018-03-09 17:34:25:896
-9.0927,-0.3805,4.0415,-9.0346,-0.2537,3.8054,0.237,0.0265,-0.0519,-0.0015,0.0059,7.0E-4,250.0,23.31,9.16,-31.24,67.45,1.46,67.14,3.1,1004.01,66.388,35.773926,-78.677536,256.19,NaN,,49.39,14.680644,296.3,14 / 21,201013,2018-03-09 17:34:26:397
-9.1884,-0.4475,3.7543,-9.0498,-0.2615,3.7687,-0.1012,0.0062,-0.0167,-0.0052,0.0124,0.0019,230.0,23.05,10.06,-31.78,66.18,1.5,67.3,3.1,1004.02,67.278,35.77398,-78.677666,254.7,NaN,,50.44,14.680644,296.1,14 / 21,201512,2018-03-09 17:34:26:896
-9.2507,-0.1125,4.008,-9.0371,-0.1541,3.805,0.1383,0.166,0.1012,0.0095,0.0,0.0139,235.0,23.85,9.96,-31.98,64.18,1.1,67.25,3.1,1004.05,67.81,35.77398,-78.677666,254.7,NaN,,50.44,14.680644,296.1,14 / 21,202012,2018-03-09 17:34:27:396
-8.9061,-0.3493,4.4004,-9.0022,-0.1149,3.8882,0.409,0.2522,0.0281,-0.0056,0.025,-0.0156,258.0,24.91,9.48,-30.31,64.0,0.64,66.68,3.1,1004.04,67.034,35.77404,-78.67781,253.83,NaN,,51.73,14.680644,297.4,14 / 21,202512,2018-03-09 17:34:27:896
-9.009,-0.0957,4.2975,-8.9762,-0.1387,3.947,0.2297,-0.0923,0.0388,-0.0099,-0.0026,-0.0101,256.0,25.85,9.52,-29.68,60.69,0.67,66.37,3.1,1004.05,65.723,35.77404,-78.67781,253.83,NaN,,51.73,14.680644,297.4,14 / 21,203011,2018-03-09 17:34:28:395
-9.2531,0.0144,4.3047,-8.9504,-0.1193,4.0058,0.0362,0.1156,0.185,9.0E-4,0.0051,0.0074,268.0,25.32,9.47,-29.85,67.83,0.76,65.91,3.1,1004.08,64.67,35.77411,-78.677956,253.74,NaN,,53.96,14.680644,296.2,14 / 21,203512,2018-03-09 17:34:28:896
-8.8798,-0.1101,3.9841,-8.9256,-0.0798,4.0618,0.088,0.0047,0.1963,0.0133,-0.0096,0.0205,297.0,24.69,8.9,-30.93,64.0,0.47,65.53,3.1,1004.11,65.384,35.77411,-78.677956,253.74,NaN,,53.96,14.680644,296.2,14 / 21,204013,2018-03-09 17:34:29:397
-9.0353,0.2082,4.5751,-8.8775,-0.0749,4.166,0.2619,0.1198,-0.0103,1.0E-4,0.0049,-0.016,242.0,23.73,9.44,-31.52,63.08,0.4,64.89,3.1,1004.13,64.815,35.774174,-78.67809,253.33,NaN,,55.12,14.680644,296.0,14 / 21,204511,2018-03-09 17:34:29:895
-8.7697,0.122,4.4171,-8.8298,-0.0563,4.2664,0.3571,0.1653,0.1492,0.0056,-0.0022,-0.0011,259.0,23.19,9.82,-31.53,62.47,0.33,64.21,3.1,1004.19,64.303,35.774174,-78.67809,253.33,NaN,,55.12,14.680644,296.0,14 / 21,205012,2018-03-09 17:34:30:396
-8.796,-0.067,5.5011,-8.7534,-0.0735,4.4208,0.4319,0.0265,0.7862,0.0072,-0.0277,5.0E-4,235.0,27.32,9.4,-26.14,52.32,0.46,63.6,3.1,1004.22,64.401,35.77423,-78.67825,251.54,NaN,,55.69,14.680644,296.4,14 / 21,205512,2018-03-09 17:34:30:896
-7.9753,0.1723,4.9555,-8.6849,-0.0716,4.5539,0.8259,-0.0376,0.4468,0.0029,-0.0181,0.0093,221.0,27.9,9.8,-26.51,52.92,0.47,62.55,3.1,1004.3,64.553,35.77423,-78.67825,251.54,NaN,,55.69,14.680644,296.4,14 / 21,206012,2018-03-09 17:34:31:396
-8.4706,-0.1172,5.3456,-8.5588,-0.0627,4.7868,0.1582,-0.0028,0.4698,0.008,4.0E-4,0.0152,208.0,23.89,7.6,-27.76,59.3,0.48,61.22,3.1,1004.36,64.673,35.77429,-78.67841,247.33,NaN,,56.23,14.680644,294.6,14 / 21,206513,2018-03-09 17:34:31:897
-8.607,0.1531,4.6134,-8.5461,-0.0069,4.8099,-0.021,0.2344,-0.1308,0.0111,-0.0055,-0.0062,167.0,23.41,7.92,-29.97,61.91,0.11,60.63,3.1,1004.42,63.514,35.77429,-78.67841,247.33,NaN,,56.23,14.680644,294.6,14 / 21,207012,2018-03-09 17:34:32:396
-9.0138,0.0096,4.6493,-8.5806,-0.0231,4.748,-0.2625,0.1783,-0.207,0.0111,0.0377,-0.0201,195.0,22.49,8.3,-32.37,65.08,0.11,60.6,3.1,1004.46,65.383,35.774353,-78.67855,245.48,NaN,,52.45,14.680644,298.3,14 / 21,207511,2018-03-09 17:34:32:895
-9.1765,0.3302,4.9364,-8.5956,0.0494,4.7205,-0.2367,0.5715,-0.0203,0.0192,0.0161,-0.0398,176.0,23.43,7.99,-31.99,64.19,-0.27,61.08,3.1,1004.54,63.763,35.774353,-78.67855,245.48,NaN,,52.45,14.680644,298.3,14 / 21,208012,2018-03-09 17:34:33:396
-8.985,0.4068,4.9077,-8.6278,0.102,4.6606,-0.1782,0.1017,-0.0363,0.0327,-2.0E-4,0.0117,166.0,24.66,6.72,-31.46,64.5,-0.48,61.52,3.1,1004.6,63.739,35.774418,-78.678696,242.21,NaN,,52.52,14.680644,297.6,14 / 21,208512,2018-03-09 17:34:33:896
-9.2578,0.4475,4.9531,-8.6667,0.2115,4.584,-0.1308,0.1446,0.2076,0.0184,0.0116,-0.028,154.0,25.05,6.62,-32.42,64.65,-1.31,62.07,3.1,1004.69,65.531,35.774418,-78.678696,242.21,NaN,,52.52,14.680644,297.6,14 / 21,209013,2018-03-09 17:34:34:397
-9.143,0.0742,4.7856,-8.6758,0.2542,4.5646,-0.0493,0.1317,0.132,0.0156,0.0128,-0.029,187.0,24.92,6.69,-32.24,69.71,-1.53,62.25,3.1,1004.71,65.77,35.774475,-78.67885,238.99,NaN,,54.18,14.680644,297.3,14 / 21,209512,2018-03-09 17:34:34:896
-9.7579,-0.1101,5.2546,-8.7077,0.1572,4.508,-0.1499,-0.1488,0.1649,0.0101,0.0202,-0.0331,177.0,23.71,5.94,-33.44,69.87,-1.06,62.52,3.1,1004.75,65.673,35.774475,-78.67885,238.99,NaN,,54.18,14.680644,297.3,14 / 21,210011,2018-03-09 17:34:35:395
-9.2626,0.2895,4.5847,-8.7388,0.1613,4.4471,-0.1257,0.1775,0.1132,0.017,0.0367,-0.017,134.0,23.31,7.47,-34.33,67.33,-0.95,62.76,3.1,1004.8,66.258,35.77454,-78.67899,233.29,NaN,,53.6,14.680644,299.6,14 / 21,210512,2018-03-09 17:34:35:896
-9.3535,0.2728,4.654,-8.7906,0.1976,4.3425,-0.0094,0.0296,-0.0101,0.0331,0.013,0.0087,165.0,22.48,6.66,-33.5,68.98,-1.01,63.62,3.1,1004.82,66.898,35.77454,-78.67899,233.29,NaN,,53.6,14.680644,299.6,14 / 21,211012,2018-03-09 17:34:36:396
-9.3272,0.1627,4.1826,-8.8285,0.2426,4.2625,-0.2184,-0.162,0.0275,0.029,0.0141,0.0038,181.0,22.57,8.0,-33.33,66.71,-1.43,64.11,3.1,1004.83,66.065,35.774616,-78.67912,231.06,NaN,,52.88,14.680644,302.1,14 / 21,211512,2018-03-09 17:34:36:896
-9.545,0.0144,3.7998,-8.9046,0.241,4.1014,-0.1778,-0.1789,-0.2557,0.0208,0.0253,0.0052,156.0,24.87,6.44,-33.82,71.32,-1.41,65.27,3.1,1004.85,66.804,35.774616,-78.67912,231.06,NaN,,52.88,14.680644,302.1,14 / 21,212012,2018-03-09 17:34:37:396
-9.7029,0.0263,3.8835,-8.963,0.2198,3.9733,-0.1174,-0.2437,-0.2265,0.009,0.0277,-0.0137,162.0,28.28,5.27,-37.64,75.26,-1.47,65.58,3.1,1004.85,66.555,35.774685,-78.67926,228.42,NaN,,52.63,14.680644,304.3,14 / 21,212511,2018-03-09 17:34:37:895
-9.7101,0.1507,3.8835,-8.9978,0.2356,3.8929,-0.3258,-0.0835,-0.0494,0.0101,0.0658,0.0036,141.0,26.0,5.57,-31.43,69.25,-1.38,66.6,3.1,1004.86,65.431,35.774685,-78.67926,228.42,NaN,,52.63,14.680644,304.3,14 / 21,213012,2018-03-09 17:34:38:396
-9.8273,-0.2465,4.4435,-9.0541,0.2004,3.7622,-0.2304,-0.0532,-0.0011,0.0023,0.0368,-0.007,154.0,24.74,7.16,-33.54,70.27,-1.15,67.01,3.1,1004.84,66.926,35.77476,-78.6794,227.66,NaN,,53.6,14.680644,305.6,14 / 21,213511,2018-03-09 17:34:38:895
-9.4421,-0.5025,3.4576,-9.0723,0.2181,3.7171,0.0639,-0.1935,-0.1767,0.0139,0.0116,0.0323,205.0,25.7,5.41,-33.63,74.92,-1.27,67.72,3.1,1004.83,66.297,35.77476,-78.6794,227.66,NaN,,53.6,14.680644,305.6,14 / 21,214011,2018-03-09 17:34:39:395
-9.722,-0.323,4.0104,-9.0691,0.0528,3.7308,-0.3871,-0.3594,0.1979,-0.0278,0.0708,-0.0314,217.0,27.14,6.8,-32.72,69.0,-1.07,67.36,3.1,1004.81,65.68,35.774834,-78.679535,226.23,NaN,,54.94,14.680644,305.0,14 / 21,214511,2018-03-09 17:34:39:895
-9.3368,-0.0766,3.4409,-9.1196,-0.0168,3.6059,0.2085,-0.1187,0.0384,-0.0256,0.0155,-0.0335,198.0,27.67,7.44,-30.0,67.96,-0.12,68.23,3.1,1004.79,66.299,35.774834,-78.679535,226.23,NaN,,54.94,14.680644,305.0,14 / 21,215014,2018-03-09 17:34:40:398
-10.2245,-0.323,4.5751,-9.0837,-0.0137,3.6955,-0.7224,-0.209,0.6236,0.008,0.0886,0.0313,222.0,26.01,6.46,-32.79,74.48,0.48,67.45,3.1,1004.74,66.124,35.774918,-78.67968,227.05,NaN,,56.02,14.680644,304.9,13 / 21,215512,2018-03-09 17:34:40:896
-10.7533,-0.3661,5.7619,-9.0904,0.0258,3.6788,-0.7394,-0.4196,1.1563,-0.0237,0.0419,-0.0262,221.0,27.32,5.76,-31.23,71.86,-0.15,67.97,3.1,1004.73,66.734,35.774918,-78.67968,227.05,NaN,,56.02,14.680644,304.9,13 / 21,216012,2018-03-09 17:34:41:396
-9.3894,-0.2273,3.8764,-9.109,-0.0417,3.6325,0.0453,-0.1219,0.2698,-0.0058,0.0401,-0.0146,190.0,26.98,6.6,-32.23,70.65,0.15,68.17,3.1,1004.7,63.612,35.774998,-78.679825,226.79,NaN,,55.91,14.680644,304.5,13 / 21,216511,2018-03-09 17:34:41:895
-10.2054,0.0383,4.1994,-9.1173,0.0461,3.6114,0.1172,-0.2175,-0.0836,-0.003,0.0143,-0.0109,180.0,27.16,5.13,-33.28,75.99,-0.27,68.39,3.1,1004.64,63.171,35.774998,-78.679825,226.79,NaN,,55.91,14.680644,304.5,13 / 21,217012,2018-03-09 17:34:42:396
-9.7579,0.5743,3.6658,-9.1276,0.0731,3.5848,-0.377,-0.0905,0.3811,-0.0025,0.0853,-0.0166,212.0,29.53,5.92,-31.15,70.21,-0.49,68.16,3.1,1004.61,65.363,35.775078,-78.67996,228.26,NaN,,54.9,14.680644,304.2,13 / 21,217511,2018-03-09 17:34:42:895
-10.2293,0.3829,4.5081,-9.1413,0.097,3.5492,0.064,0.1446,0.1642,0.0095,0.0442,0.007,193.0,29.04,6.71,-29.78,67.19,-0.42,68.54,3.1,1004.53,69.177,35.775078,-78.67996,228.26,NaN,,54.9,14.680644,304.2,13 / 21,218011,2018-03-09 17:34:43:395
-9.5186,0.0359,3.6969,-9.1344,0.0894,3.5672,0.4823,0.0794,-0.0253,-0.0074,-0.0257,-0.03,185.0,27.54,5.22,-31.23,73.83,-0.68,68.78,3.1,1004.5,68.797,35.775154,-78.6801,231.69,NaN,,54.68,14.680644,304.5,13 / 21,218512,2018-03-09 17:34:43:896
-9.4325,-0.1149,3.6108,-9.1277,0.0501,3.585,0.0797,-0.2183,0.0983,0.0156,0.0139,0.0158,206.0,27.63,5.29,-30.54,74.55,-0.24,68.6,3.1,1004.41,65.414,35.775154,-78.6801,231.69,NaN,,54.68,14.680644,304.5,13 / 21,219012,2018-03-09 17:34:44:396
-9.2243,-0.2656,3.393,-9.1328,0.1158,3.5706,0.162,-0.3697,-0.1586,0.005,0.0096,0.0201,193.0,27.25,5.4,-31.65,72.26,-0.61,68.67,3.1,1004.39,65.905,35.775227,-78.68024,232.66,NaN,,54.61,14.680644,304.9,13 / 21,219512,2018-03-09 17:34:44:896
-9.2985,0.1292,3.7974,-9.146,0.1057,3.5369,0.2124,-0.0744,-0.345,0.005,-0.0033,0.0174,215.0,26.81,6.54,-32.12,69.81,-0.62,68.86,3.1,1004.3,65.307,35.775227,-78.68024,232.66,NaN,,54.61,14.680644,304.9,13 / 21,220011,2018-03-09 17:34:45:395
-9.7867,-0.3829,3.7065,-9.1423,0.0402,3.5478,0.0144,-0.4335,0.1065,-0.0107,-0.025,-0.0015,242.0,26.64,6.3,-31.71,68.82,-0.45,68.87,3.1,1004.26,64.793,35.775307,-78.680374,235.36,NaN,,54.79,14.680644,304.9,12 / 21,220512,2018-03-09 17:34:45:896
-9.2865,-0.8327,3.3739,-9.1448,0.0023,3.5417,-0.0405,-0.1651,-0.0516,-0.0418,-0.0358,-0.0392,231.0,28.32,5.38,-29.23,73.52,-0.01,68.83,3.1,1004.19,66.511,35.775307,-78.680374,235.36,NaN,,54.79,14.680644,304.9,12 / 21,221011,2018-03-09 17:34:46:395
-8.5424,-0.1149,3.5318,-9.0956,-0.1018,3.6648,0.9499,-0.0418,-0.7725,5.0E-4,-0.0153,0.0288,239.0,26.77,5.62,-30.07,72.7,0.67,68.32,3.1,1004.13,67.01,35.775383,-78.68052,236.92,NaN,,55.04,14.680644,304.7,13 / 21,221513,2018-03-09 17:34:46:897
-8.6429,-0.3254,3.7089,-9.0199,-0.2525,3.8404,-0.4206,-0.7553,0.6222,-0.0245,-0.0485,0.0048,258.0,25.96,6.12,-31.26,74.55,1.48,66.94,3.1,1004.07,65.39,35.775383,-78.68052,236.92,NaN,,55.04,14.680644,304.7,13 / 21,222013,2018-03-09 17:34:47:397
-10.0546,-0.6174,4.654,-9.0517,-0.1868,3.7687,-0.9485,-0.643,0.6145,-0.014,0.0943,0.0351,255.0,26.0,7.59,-32.25,69.34,1.06,67.2,3.1,1004.01,68.986,35.77546,-78.680664,237.89,NaN,,55.69,14.680644,304.0,13 / 20,222512,2018-03-09 17:34:47:896
-9.2195,-0.9834,4.8168,-9.0549,-0.22,3.759,0.4216,-0.3271,0.2253,-0.0168,-0.0884,0.0046,254.0,26.29,7.07,-32.69,73.24,1.29,67.45,3.1,1003.93,65.185,35.77546,-78.680664,237.89,NaN,,55.69,14.680644,304.0,13 / 20,223012,2018-03-09 17:34:48:396
-8.0375,-0.0909,3.3547,-9.0424,-0.2486,3.7873,1.1306,-0.0848,-0.3222,-0.0315,-0.0426,-0.0441,277.0,27.81,7.09,-29.53,70.01,1.04,68.11,3.1,1003.94,64.0,35.775536,-78.68081,240.03,NaN,,55.4,14.680644,302.6,13 / 21,223511,2018-03-09 17:34:48:895
-6.3051,-0.5504,3.7831,-8.7687,-0.4987,4.3626,2.7536,0.1139,-0.6077,-0.0471,-0.3873,-0.0836,348.0,26.93,8.1,-31.25,68.93,2.92,63.55,3.1,1003.9,61.376,35.775536,-78.68081,240.03,NaN,,55.4,14.680644,302.6,13 / 21,224012,2018-03-09 17:34:49:396
-9.3727,-0.9284,4.4148,-8.8865,-0.5268,4.1138,-0.3217,-0.3131,0.1422,-0.0015,0.01,0.0681,351.0,25.23,7.72,-30.82,71.54,3.39,65.1,3.1,1003.95,68.492,35.775604,-78.680954,241.22,NaN,,54.9,14.680644,301.2,13 / 21,224512,2018-03-09 17:34:49:896
-9.2028,-0.414,3.7113,-8.9658,-0.3317,3.9591,-0.7649,0.0186,0.3433,-0.0148,0.0719,0.0435,297.0,25.03,6.71,-30.23,71.47,1.94,66.18,3.1,1003.95,69.338,35.775604,-78.680954,241.22,NaN,,54.9,14.680644,301.2,13 / 21,225012,2018-03-09 17:34:50:396
-9.2483,-0.0072,4.52,-8.9656,-0.2261,3.967,-0.3278,0.3581,0.5308,-0.0137,0.0067,0.0192,296.0,24.65,7.43,-31.08,69.98,1.42,66.16,3.1,1003.95,67.33,35.775673,-78.68111,240.57,NaN,,54.9,14.680644,300.7,13 / 21,225513,2018-03-09 17:34:50:897
-9.5139,-0.4666,4.879,-8.9691,-0.3155,3.953,0.1602,0.1411,0.3249,-0.0109,-4.0E-4,-0.0044,291.0,24.42,8.41,-32.23,70.64,1.8,66.29,3.1,1003.92,68.118,35.775673,-78.68111,240.57,NaN,,54.9,14.680644,300.7,13 / 21,226011,2018-03-09 17:34:51:395
-9.8154,-0.1005,4.9364,-8.9788,-0.3498,3.9279,-0.0011,0.4066,0.9254,-0.0205,0.0295,-0.017,308.0,27.48,8.03,-30.28,68.68,1.78,66.29,3.1,1003.91,68.184,35.77574,-78.68125,238.94,NaN,,55.19,14.680644,299.1,13 / 21,226512,2018-03-09 17:34:51:896
-8.5831,-0.5862,4.6229,-8.9422,-0.4752,3.9978,0.9359,0.0821,0.0872,0.0082,-0.0647,0.0256,256.0,27.44,9.25,-28.52,65.7,2.95,66.4,3.1,1003.9,68.05,35.77574,-78.68125,238.94,NaN,,55.19,14.680644,299.1,13 / 21,227012,2018-03-09 17:34:52:396
-9.8369,-0.4164,4.5009,-8.911,-0.2333,4.0877,-0.3881,0.2153,0.1283,0.019,0.0214,0.0276,253.0,26.1,7.88,-29.33,66.25,1.97,65.13,3.1,1003.83,67.301,35.775806,-78.6814,241.27,NaN,,54.0,14.680644,298.6,13 / 21,227512,2018-03-09 17:34:52:896
-8.9731,-0.3398,4.0989,-8.9303,-0.0646,4.0517,-0.0739,0.2135,0.0113,0.0176,0.0124,0.0156,272.0,26.5,6.54,-29.82,67.67,0.58,65.55,3.1,1003.82,69.047,35.775806,-78.6814,241.27,NaN,,54.0,14.680644,298.6,13 / 21,228012,2018-03-09 17:34:53:396
-9.6,0.3733,3.8261,-8.9532,0.0304,4.0012,-0.3295,0.1456,-0.1568,0.0078,0.0145,0.0066,266.0,28.16,6.21,-31.16,68.66,-0.12,65.8,3.1,1003.82,67.928,35.775867,-78.68153,240.86,NaN,,52.52,14.680644,298.3,13 / 21,228512,2018-03-09 17:34:53:896
-10.0522,0.7322,3.9601,-8.9975,-0.0734,3.9001,-0.1897,0.7812,-0.319,-0.0089,0.0609,-0.0848,277.0,26.95,7.04,-32.09,70.16,0.43,66.57,3.1,1003.82,68.275,35.775867,-78.68153,240.86,NaN,,52.52,14.680644,298.3,13 / 21,229011,2018-03-09 17:34:54:395
-9.612,0.3781,3.9482,-8.9907,-0.1384,3.9139,-0.2567,0.5499,0.0708,0.0304,0.023,-0.0013,263.0,26.96,8.17,-31.3,64.95,0.99,66.41,3.1,1003.78,57.551,35.775932,-78.68167,241.19,NaN,,52.6,14.680644,299.1,13 / 21,229511,2018-03-09 17:34:54:895
-9.746,0.4116,4.2138,-9.0142,-0.1268,3.8598,-0.0718,0.463,-0.0322,0.0288,-0.0098,-0.015,266.0,27.01,8.61,-30.47,63.45,0.81,66.86,3.1,1003.75,56.367,35.775932,-78.68167,241.19,NaN,,52.6,14.680644,299.1,13 / 21,230012,2018-03-09 17:34:55:396
-9.8225,0.4259,4.142,-9.0115,-0.2011,3.863,-0.1234,0.347,0.2754,0.026,0.0236,-0.0311,240.0,27.36,8.96,-29.39,62.59,1.09,66.81,3.1,1003.75,58.953,35.776,-78.681816,241.51,NaN,,53.57,14.680644,299.3,13 / 21,230512,2018-03-09 17:34:55:896
-9.7173,-0.1316,4.1324,-9.0651,-0.1926,3.736,0.1336,0.1363,-0.3118,0.0337,0.0183,-0.016,231.0,25.21,6.99,-29.33,69.96,1.19,67.51,3.1,1003.73,64.683,35.776,-78.681816,241.51,NaN,,53.57,14.680644,299.3,13 / 21,231011,2018-03-09 17:34:56:395
-9.2387,0.2584,4.0367,-9.0394,0.0038,3.8025,0.1663,0.3143,0.1107,0.0577,0.0045,0.0156,234.0,24.3,8.06,-30.83,68.26,0.48,67.31,3.1,1003.68,65.232,35.776073,-78.68195,241.38,NaN,,53.82,14.680644,302.1,13 / 21,231511,2018-03-09 17:34:56:895
-9.6239,0.7801,4.6469,-9.0522,0.1435,3.7692,-0.0967,0.6788,0.3419,0.0479,-0.0094,-0.0518,236.0,24.98,6.95,-32.05,69.35,-0.88,67.51,3.1,1003.67,66.233,35.776073,-78.68195,241.38,NaN,,53.82,14.680644,302.1,13 / 21,232012,2018-03-09 17:34:57:396
-9.2459,1.651,3.9841,-9.0404,0.37,3.7822,0.0828,1.4095,0.272,0.118,-0.0151,-0.026,218.0,26.61,6.37,-31.22,69.54,-1.28,67.47,3.1,1003.63,66.908,35.776142,-78.6821,241.3,NaN,,53.75,14.680644,305.1,13 / 21,232512,2018-03-09 17:34:57:896
-9.0664,1.9717,3.8788,-9.0236,0.601,3.7925,0.3529,1.1405,0.1135,0.1168,-0.0165,-0.0412,206.0,26.52,4.19,-31.98,71.75,-3.51,67.2,3.1,1003.58,64.333,35.776142,-78.6821,241.3,NaN,,53.75,14.680644,305.1,13 / 21,233012,2018-03-09 17:34:58:396
-9.0927,0.8112,4.1922,-9.0419,0.7305,3.7257,-0.0631,0.5811,0.1232,0.0931,-0.0059,-0.042,182.0,26.12,3.69,-32.93,72.27,-4.04,67.51,3.1,1003.58,67.339,35.77623,-78.68221,242.09,NaN,,53.46,14.680644,309.4,13 / 21,233511,2018-03-09 17:34:58:895
-9.7029,0.0574,4.3382,-9.0686,0.6311,3.6787,-0.1474,-0.6992,-0.0236,0.0323,0.0212,-0.0046,176.0,26.08,2.37,-33.89,78.63,-3.69,67.92,3.1,1003.53,67.441,35.77623,-78.68221,242.09,NaN,,53.46,14.680644,309.4,13 / 21,234013,2018-03-09 17:34:59:397
-9.6383,0.0024,4.3908,-9.0937,0.4807,3.6393,0.1036,-0.2964,-0.2426,0.0282,-0.0083,-0.0321,182.0,26.11,1.9,-34.42,77.54,-3.4,68.29,3.1,1003.48,69.346,35.776325,-78.682335,243.47,NaN,,53.28,14.680644,315.8,13 / 21,234512,2018-03-09 17:34:59:896
-9.4325,0.2082,3.807,-9.1062,0.2904,3.628,-0.3924,-0.671,0.2874,0.0325,0.0202,-0.0105,176.0,25.07,3.39,-35.21,79.62,-1.98,68.2,3.1,1003.42,60.21,35.776325,-78.682335,243.47,NaN,,53.28,14.680644,315.8,13 / 21,235012,2018-03-09 17:35:00:396
-9.6909,0.8614,3.5844,-9.1393,0.3787,3.5356,-0.0612,0.6298,-0.0116,0.0805,0.0165,-0.0239,171.0,26.76,3.15,-33.16,78.31,-2.0,68.46,3.1,1003.42,58.239,35.776424,-78.68244,245.02,NaN,,53.5,14.680644,318.5,13 / 21,235512,2018-03-09 17:35:00:896
-9.3344,1.1533,3.7065,-9.1235,0.4572,3.567,0.1035,0.7134,0.0389,0.0822,0.0139,-0.0524,163.0,28.26,1.68,-35.28,80.43,-2.61,68.56,3.1,1003.38,58.987,35.776424,-78.68244,245.02,NaN,,53.5,14.680644,318.5,13 / 21,236011,2018-03-09 17:35:01:395
-9.2315,0.7609,3.3763,-9.1381,0.5313,3.5189,0.2275,0.2122,-0.187,0.0832,0.0055,-0.005,176.0,25.27,1.14,-35.49,83.5,-2.68,68.73,3.1,1003.32,60.443,35.77653,-78.68254,246.74,NaN,,54.11,14.680644,321.5,13 / 21,236512,2018-03-09 17:35:01:896
-9.2052,0.8901,3.3452,-9.1305,0.7173,3.5056,-0.0961,-0.0803,0.0237,0.0589,0.001,-0.0363,175.0,25.79,0.26,-35.38,83.42,-4.19,69.0,3.1,1003.28,59.968,35.77653,-78.68254,246.74,NaN,,54.11,14.680644,321.5,13 / 21,237011,2018-03-09 17:35:02:395
-9.8536,0.5647,3.6634,-9.1521,0.7601,3.4397,0.2177,0.1686,-0.1654,0.0781,0.0027,0.0199,161.0,24.54,0.25,-35.97,83.9,-4.2,69.24,3.1,1003.25,61.771,35.776646,-78.68265,248.79,NaN,,54.04,14.680644,325.7,13 / 21,237512,2018-03-09 17:35:02:896
-9.8704,-0.0431,3.9984,-9.165,0.7228,3.4133,0.0539,-0.411,-0.0674,0.0304,4.0E-4,-0.0152,158.0,24.01,-0.68,-36.99,86.35,-4.33,69.56,3.1,1003.21,62.084,35.776646,-78.68265,248.79,NaN,,54.04,14.680644,325.7,13 / 21,238011,2018-03-09 17:35:03:395
-9.2626,0.3948,3.2973,-9.1737,0.6645,3.4017,0.0856,-0.611,0.0667,-0.0036,-0.0059,-0.0494,155.0,26.01,-1.49,-35.04,85.75,-4.35,69.7,3.1,1003.17,59.868,35.776764,-78.68273,251.98,NaN,,54.86,14.680644,330.0,13 / 21,238511,2018-03-09 17:35:03:895
-9.6263,-0.2895,3.9123,-9.1762,0.5384,3.4172,-0.1386,-0.5121,0.0241,0.0033,6.0E-4,-0.0164,166.0,26.24,-1.3,-35.48,87.25,-3.34,69.46,3.1,1003.1,59.446,35.776764,-78.68273,251.98,NaN,,54.86,14.680644,330.0,13 / 21,239012,2018-03-09 17:35:04:396
-9.7819,-0.2536,3.8381,-9.1852,0.3586,3.4167,0.169,-0.3632,-0.1013,7.0E-4,0.0027,-0.0176,186.0,25.34,-1.73,-36.1,90.94,-2.53,69.55,3.1,1003.05,62.486,35.77689,-78.68281,254.31,NaN,,55.84,14.680644,332.2,13 / 21,239513,2018-03-09 17:35:04:897
-9.6933,0.4116,3.8979,-9.1839,0.3575,3.4203,0.175,0.0066,-0.0083,0.0129,0.0081,-0.0099,203.0,25.92,-2.09,-35.52,91.58,-2.05,69.55,3.1,1003.0,62.969,35.77689,-78.68281,254.31,NaN,,55.84,14.680644,332.2,13 / 21,240012,2018-03-09 17:35:05:396
-9.4014,-0.4283,3.3978,-9.178,0.1814,3.45,0.416,-0.0935,-0.0762,1.0E-4,-0.0096,-0.0235,213.0,23.47,-1.7,-37.29,92.78,-1.18,69.32,3.1,1002.95,64.686,35.777016,-78.68288,257.38,NaN,,56.63,14.680644,333.2,13 / 21,240511,2018-03-09 17:35:05:895
-10.2461,-0.7322,4.2329,-9.1743,0.0616,3.4638,-0.2416,-0.4762,0.4384,-0.0139,0.0238,-0.0302,252.0,23.61,-0.68,-37.69,89.42,-0.43,69.19,3.1,1002.91,64.211,35.777016,-78.68288,257.38,NaN,,56.63,14.680644,333.2,13 / 21,241012,2018-03-09 17:35:06:396
-8.4754,0.2847,2.9432,-9.1687,0.157,3.4758,0.7784,-0.0796,-0.3016,0.0072,0.0094,0.0317,266.0,25.73,-1.29,-35.59,91.31,-0.68,69.21,3.1,1002.89,66.108,35.777145,-78.68296,259.43,NaN,,57.31,14.680644,333.6,13 / 21,241512,2018-03-09 17:35:06:896
-9.5737,-0.3206,3.7424,-9.1436,-0.0135,3.5446,-0.2982,-0.4303,0.399,0.0121,0.0157,0.0262,290.0,25.95,-0.27,-36.05,90.14,0.09,68.81,3.1,1002.82,60.553,35.777145,-78.68296,259.43,NaN,,57.31,14.680644,333.6,13 / 21,242012,2018-03-09 17:35:07:396
-9.2985,-0.414,3.5318,-9.1405,-0.042,3.5524,0.3195,-0.2111,-0.1359,-0.0137,-0.0161,-0.0272,287.0,25.75,-1.1,-35.55,92.58,0.11,68.88,3.1,1002.79,63.319,35.777275,-78.68304,262.63,NaN,,57.67,14.680644,333.4,13 / 20,242512,2018-03-09 17:35:07:896
-9.4684,-0.7657,3.9434,-9.1455,-0.2098,3.5337,-0.0595,-0.1612,0.0922,0.0351,-0.0063,0.0636,313.0,25.5,-0.37,-35.51,92.52,1.63,68.82,3.1,1002.75,69.147,35.777275,-78.68304,262.63,NaN,,57.67,14.680644,333.4,13 / 20,243012,2018-03-09 17:35:08:396
-8.607,-0.1292,3.1514,-9.1468,-0.0688,3.5358,0.6229,-0.1595,-0.424,0.0046,-0.035,0.0302,302.0,24.23,-3.08,-35.65,97.51,0.75,68.85,3.1,1002.7,64.273,35.77741,-78.68312,265.19,NaN,,58.1,14.680644,333.5,13 / 20,243511,2018-03-09 17:35:08:895
-9.1286,-0.1914,3.46,-9.1231,-0.0737,3.5965,0.0037,-0.172,-0.1164,-0.0023,0.0014,-0.0097,328.0,24.04,-2.14,-37.01,95.02,0.4,68.48,3.1,1002.65,58.71,35.77741,-78.68312,265.19,NaN,,58.1,14.680644,333.5,13 / 20,244012,2018-03-09 17:35:09:396
-9.0257,-0.0455,3.4361,-9.1004,-0.1284,3.652,0.1486,-0.0555,0.0193,-0.0101,-0.0041,-0.0317,254.0,23.65,-0.77,-37.56,90.83,0.53,68.34,3.1,1002.59,58.805,35.77754,-78.683205,265.81,NaN,,58.39,14.680644,333.2,13 / 20,244514,2018-03-09 17:35:09:898
-8.9683,-0.146,3.606,-9.084,-0.1241,3.6926,0.055,-0.0272,0.1544,0.0052,-6.0E-4,0.0028,215.0,25.23,-0.19,-36.64,91.08,0.73,67.88,3.1,1002.53,63.767,35.77754,-78.683205,265.81,NaN,,58.39,14.680644,333.2,13 / 20,245012,2018-03-09 17:35:10:396
-9.6383,-0.2536,4.1659,-9.0703,-0.1448,3.7255,0.2242,-0.036,-9.0E-4,-0.0017,-0.01,-0.0154,217.0,24.89,-1.38,-35.25,93.6,0.69,67.6,3.1,1002.52,61.206,35.777668,-78.68329,267.69,NaN,,59.0,14.680644,333.5,13 / 20,245511,2018-03-09 17:35:10:895
-9.5641,-0.6006,4.0702,-9.0768,-0.1637,3.7088,-0.2794,-0.3367,0.1693,0.0019,0.02,0.0032,187.0,25.19,-1.24,-35.09,93.97,0.92,67.65,3.1,1002.5,61.559,35.777668,-78.68329,267.69,NaN,,59.0,14.680644,333.5,13 / 20,246012,2018-03-09 17:35:11:396
-9.0233,-0.7155,3.8142,-9.0756,-0.1469,3.7125,-0.1491,-5.0E-4,0.3005,3.0E-4,0.0081,0.0062,232.0,22.8,-1.34,-37.57,93.38,0.91,67.74,3.1,1002.47,62.353,35.7778,-78.683365,269.02,NaN,,58.79,14.680644,333.5,13 / 20,246512,2018-03-09 17:35:11:896
-8.9635,-0.189,4.1539,-9.0885,-0.148,3.6806,0.1693,-0.2846,0.0271,0.0019,0.0149,0.0121,172.0,24.79,-2.45,-36.72,95.87,0.86,67.95,3.1,1002.44,65.165,35.7778,-78.683365,269.02,NaN,,58.79,14.680644,333.5,13 / 20,247011,2018-03-09 17:35:12:395
-9.064,-0.2369,3.716,-9.1067,-0.1367,3.6358,0.2722,-0.1834,-0.0408,0.0021,0.0055,0.0139,138.0,25.43,-0.85,-36.06,93.72,0.88,68.07,3.1,1002.41,67.488,35.77793,-78.68345,270.51,NaN,,58.32,14.680644,333.3,13 / 20,247512,2018-03-09 17:35:12:896
-9.5928,0.1149,4.2808,-9.0626,-0.0476,3.7466,0.0606,0.231,0.308,0.0107,0.0,0.0247,174.0,26.19,-1.26,-37.43,93.03,0.43,67.57,3.1,1002.36,64.133,35.77793,-78.68345,270.51,NaN,,58.32,14.680644,333.3,13 / 20,248012,2018-03-09 17:35:13:396
-9.2626,0.0024,4.4411,-9.038,-0.1159,3.8041,0.1735,0.0435,0.4715,0.005,0.0179,-0.0105,193.0,25.41,-1.57,-35.7,96.16,0.52,67.15,3.1,1002.31,63.643,35.77806,-78.683525,271.52,NaN,,58.03,14.680644,333.7,13 / 20,248511,2018-03-09 17:35:13:895
